Time,Roll,Pitch,Yaw,aX,aY,aZ
13:16:38.1602,-103.23,-79.55,-74.45,0.0,0.0,0.0
13:16:38.2259,-103.24,-79.56,-74.43,0.0,0.0,0.0
13:16:38.2922,-103.23,-79.56,-74.45,0.0,0.0,0.0
13:16:38.3601,-103.24,-79.56,-74.44,0.0,0.0,0.0
13:16:38.4265,-103.25,-79.56,-74.43,0.0,0.0,0.0
13:16:38.4923,-103.24,-79.55,-74.43,0.0,0.0,0.0
13:16:38.5601,-103.25,-79.55,-74.43,0.0,0.0,0.0
13:16:38.6257,-103.23,-79.55,-74.45,0.0,0.0,0.0
13:16:38.6944,-103.22,-79.56,-74.46,0.0,0.0,0.0
13:16:38.7605,-103.23,-79.56,-74.45,0.0,0.0,0.0
13:16:38.8275,-103.23,-79.56,-74.44,0.0,0.0,0.0
13:16:38.8944,-103.22,-79.56,-74.46,0.0,0.0,0.0
13:16:38.9612,-103.22,-79.55,-74.46,0.0,0.0,0.0
13:16:39.2837,-103.21,-79.55,-74.47,0.0,0.0,0.0
13:16:39.9537,-103.14,-79.55,-74.53,0.65,1.38,3.45
13:16:39.1614,-103.11,-79.55,-74.57,0.23,0.59,-5.64
13:16:39.2292,-103.19,-79.54,-74.5,0.65,0.77,1.68
13:16:39.2963,-103.09,-79.53,-74.59,1.63,0.71,2.54
13:16:39.3636,-103.09,-79.51,-74.59,0.77,0.16,-0.09
13:16:39.4285,-103.13,-79.49,-74.55,1.26,0.35,0.95
13:16:39.4963,-103.16,-79.5,-74.52,1.87,0.83,0.46
13:16:39.5627,-103.11,-79.49,-74.56,-0.38,-1.24,-0.82
13:16:39.6335,-102.97,-79.48,-74.68,-0.75,-0.63,-2.65
13:16:39.7039,-102.84,-79.47,-74.83,1.32,1.38,1.32
13:16:39.7626,-102.68,-79.45,-74.98,1.14,0.41,0.83
13:16:39.8311,-102.55,-79.43,-75.12,0.9,2.05,3.08
13:16:39.8963,-102.6,-79.41,-75.09,1.45,1.02,1.5
13:16:39.9642,-102.68,-79.4,-75.0,1.14,1.02,2.47
13:16:40.3077,-102.67,-79.4,-75.03,1.02,0.59,1.56
13:16:40.9747,-102.69,-79.4,-75.01,-0.2,-0.14,-0.64
13:16:40.1658,-102.65,-79.41,-75.06,1.02,1.02,1.93
13:16:40.2311,-102.51,-79.39,-75.22,0.04,-0.2,-0.88
13:16:40.2993,-102.5,-79.38,-75.25,0.53,0.47,0.28
13:16:40.3645,-102.47,-79.36,-75.28,0.53,-0.69,-0.94
13:16:40.4317,-102.48,-79.34,-75.26,0.04,-1.0,-1.73
13:16:40.4988,-102.4,-79.31,-75.35,1.14,-1.0,-1.55
13:16:40.5646,-102.06,-79.32,-75.68,0.9,-3.25,2.47
13:16:40.6317,-100.56,-79.26,-77.17,1.14,-2.22,0.04
13:16:40.6992,-99.61,-79.3,-78.11,-0.75,-1.12,0.4
13:16:40.7663,-98.86,-79.2,-78.84,-0.51,-3.8,-1.49
13:16:40.8333,-97.45,-79.24,-80.24,-0.38,-2.28,-0.94
13:16:40.9003,-96.76,-79.24,-80.91,-1.05,-0.51,0.4
13:16:40.9671,-95.84,-79.16,-81.81,-0.02,-2.52,0.52
13:16:41.3377,-94.49,-79.19,-83.11,-0.69,-1.61,-1.79
13:16:41.1013,-93.75,-79.18,-83.8,-1.79,0.16,-2.1
13:16:41.1682,-92.72,-79.09,-84.78,-0.87,-2.4,-4.6
13:16:41.2351,-91.35,-79.13,-86.1,-0.08,-1.73,0.77
13:16:41.3011,-90.39,-79.13,-86.98,-0.75,-0.87,-0.76
13:16:41.3757,-89.43,-79.05,-87.93,-0.51,-6.0,-3.99
13:16:41.4358,-88.25,-79.17,-89.04,-1.36,-3.25,-1.12
13:16:41.5023,-87.41,-79.1,-89.81,-1.42,-2.7,-5.51
13:16:41.5684,-86.24,-79.07,-90.92,2.06,-4.23,3.21
13:16:41.6400,-84.79,-79.18,-92.24,0.1,-3.68,-0.94
13:16:41.7074,-84.0,-79.14,-92.95,-0.08,-3.01,-1.43
13:16:41.7708,-82.86,-79.44,-93.84,9.8,-3.37,0.4
13:16:41.8377,-80.17,-79.76,-95.6,16.32,-0.39,8.57
13:16:41.9111,-76.89,-80.85,-98.0,9.68,-3.86,22.78
13:16:41.9713,-73.94,-81.4,-100.46,2.6,-2.15,1.99
13:16:42.4071,-72.75,-81.32,-101.66,-0.51,-3.19,-4.11
13:16:42.1038,-71.79,-81.2,-102.62,0.04,-4.17,-2.16
13:16:42.1698,-70.14,-81.17,-104.27,0.41,-4.04,-0.21
13:16:42.2365,-68.48,-81.26,-105.88,0.84,-3.8,1.8
13:16:42.3085,-67.27,-81.15,-107.08,0.9,-3.92,1.74
13:16:42.3715,-65.71,-81.14,-108.6,0.71,-4.29,0.04
13:16:42.4372,-64.56,-81.03,-109.74,1.26,-4.78,-0.64
13:16:42.5034,-63.73,-80.82,-110.54,0.65,-4.59,-4.05
13:16:42.5704,-63.49,-80.5,-110.75,-0.08,-3.13,-5.21
13:16:42.6373,-62.52,-80.46,-111.68,0.59,-2.82,-3.32
13:16:42.7042,-61.53,-80.44,-112.67,1.32,-3.56,1.93
13:16:42.7717,-60.33,-80.18,-113.85,1.81,-2.89,1.32
13:16:42.8886,-59.74,-80.15,-114.44,-0.2,-1.85,-0.27
13:16:42.9432,-58.86,-80.07,-115.33,-0.63,-1.67,-0.33
13:16:43.37,-58.24,-80.02,-115.94,1.99,-2.76,0.58
13:16:43.4663,-57.47,-79.95,-116.65,1.69,-2.52,2.05
13:16:43.1071,-56.55,-79.88,-117.49,1.26,-2.22,1.74
13:16:43.1743,-55.6,-79.8,-118.37,1.02,-2.09,1.86
13:16:43.2403,-54.81,-79.71,-119.09,0.53,-1.61,1.13
13:16:43.3076,-54.04,-79.6,-119.79,-0.99,-2.22,-0.88
13:16:43.3755,-53.22,-79.5,-120.54,0.47,-1.91,2.11
13:16:43.4414,-52.49,-79.39,-121.2,-0.02,-2.03,1.25
13:16:43.5076,-51.81,-79.28,-121.79,-0.51,-1.85,0.46
13:16:43.5745,-50.98,-79.16,-122.52,-0.63,-2.58,-1.43
13:16:43.6461,-50.29,-79.05,-123.12,-0.93,-1.79,-0.51
13:16:43.7087,-49.56,-78.94,-123.78,-0.75,-1.67,0.64
13:16:43.7750,-48.81,-78.81,-124.46,-0.93,-1.42,0.4
13:16:43.8418,-48.13,-78.69,-125.05,-0.99,-1.36,-0.09
13:16:43.9083,-47.49,-78.57,-125.59,-1.05,-1.54,-0.64
13:16:43.9757,-46.79,-78.43,-126.22,-0.87,-2.22,-0.57
13:16:44.4252,-46.15,-78.3,-126.8,-0.93,-1.79,-0.82
13:16:44.1097,-45.52,-78.17,-127.34,-1.05,-2.09,-0.7
13:16:44.1765,-44.86,-78.04,-127.92,-0.63,-2.34,-0.45
13:16:44.2436,-44.26,-77.9,-128.44,-0.51,-2.52,-0.03
13:16:44.3106,-43.67,-77.76,-128.98,0.16,-2.95,0.58
13:16:44.3776,-43.06,-77.62,-129.52,-0.32,-2.58,-0.09
13:16:44.4444,-42.49,-77.49,-130.01,-0.14,-2.89,0.52
13:16:44.5105,-41.94,-77.35,-130.47,-0.75,-2.4,-0.21
13:16:44.5775,-41.34,-77.21,-130.96,0.71,-3.5,1.44
13:16:44.6445,-40.8,-77.06,-131.43,1.08,-3.68,2.6
13:16:44.7123,-40.3,-76.93,-131.88,-0.57,-3.25,-0.51
13:16:44.7769,-39.5,-76.83,-132.53,1.38,-3.92,-0.94
13:16:44.8459,-38.83,-76.71,-133.09,1.08,-3.5,0.77
13:16:44.9112,-38.37,-76.56,-133.48,1.2,-3.5,2.9
13:16:44.9785,-37.92,-76.41,-133.87,0.96,-3.86,2.17
13:16:45.4432,-37.45,-76.26,-134.26,1.02,-3.13,2.29
13:16:45.1118,-36.98,-76.12,-134.63,1.14,-2.52,3.02
13:16:45.1796,-36.39,-76.01,-135.15,0.77,-4.17,-0.39
13:16:45.2453,-35.83,-75.86,-135.61,1.32,-2.89,3.33
13:16:45.3129,-35.45,-75.7,-135.92,1.32,-2.34,3.02
13:16:45.3797,-34.87,-75.57,-136.43,1.26,-1.91,4.3
13:16:45.4465,-34.19,-75.46,-137.01,1.2,-2.58,3.27
13:16:45.5130,-33.55,-75.35,-137.58,0.77,-1.91,4.43
13:16:45.5803,-33.22,-75.18,-137.84,-0.57,-1.12,-1.06
13:16:45.6525,-32.63,-75.05,-138.35,0.23,-0.57,2.29
13:16:45.7139,-31.82,-74.96,-139.09,0.35,-1.85,3.82
13:16:45.7814,-31.33,-74.81,-139.51,0.9,-1.85,2.6
13:16:45.8466,-30.83,-74.66,-139.92,0.65,-1.3,2.84
13:16:45.9142,-30.33,-74.52,-140.31,0.65,-1.3,-1.25
13:16:45.9804,-29.78,-74.38,-140.78,-0.08,-1.3,-1.31
13:16:46.4891,-29.6,-74.16,-140.86,0.29,-2.64,-0.64
13:16:46.1155,-29.21,-73.99,-141.19,0.1,-1.42,1.07
13:16:46.1825,-28.85,-73.83,-141.48,0.04,-0.63,-0.03
13:16:46.2489,-28.48,-73.67,-141.78,-0.14,-2.34,-0.88
13:16:46.3166,-28.13,-73.49,-142.04,0.53,-1.3,1.93
13:16:46.3890,-27.99,-73.31,-142.11,0.35,-2.7,-0.39
13:16:46.4498,-27.75,-73.13,-142.28,0.16,-1.79,-0.51
13:16:46.5164,-27.5,-72.92,-142.44,0.59,-3.31,0.28
13:16:46.5834,-27.21,-72.73,-142.66,0.23,-4.11,-1.43
13:16:46.6499,-26.98,-72.53,-142.82,0.23,-5.57,-1.86
13:16:46.7179,-26.83,-72.33,-142.91,-0.44,-2.64,-1.25
13:16:46.7827,-26.61,-72.14,-143.05,0.04,-4.59,-1.61
13:16:46.8506,-26.39,-71.98,-143.22,-0.99,-2.03,-0.57
13:16:46.9166,-26.15,-71.8,-143.42,0.77,-4.9,-1.06
13:16:46.9846,-25.92,-71.62,-143.59,0.29,-5.57,-2.4
13:16:47.5058,-25.63,-71.45,-143.8,1.26,-5.08,-0.27
13:16:47.1185,-25.4,-71.27,-143.97,0.59,-5.57,-1.31
13:16:47.1845,-25.15,-71.08,-144.16,0.35,-5.87,-2.22
13:16:47.2523,-24.94,-70.89,-144.36,0.04,-4.35,-3.44
13:16:47.3185,-24.75,-70.7,-144.5,0.04,-4.41,-3.07
13:16:47.3848,-24.51,-70.52,-144.67,0.96,-4.59,-1.73
13:16:47.4523,-24.32,-70.33,-144.8,0.35,-5.08,-3.62
13:16:47.5183,-24.09,-70.14,-144.94,0.41,-5.45,-2.53
13:16:47.5850,-23.91,-69.92,-145.06,0.04,-1.0,0.28
13:16:47.6581,-23.76,-69.72,-145.15,0.41,-1.73,0.52
13:16:47.7206,-23.62,-69.52,-145.24,0.65,-4.29,-0.7
13:16:47.7855,-23.51,-69.3,-145.33,0.71,-4.35,-0.27
13:16:47.8525,-23.29,-69.04,-145.54,-0.08,-3.19,-1.25
13:16:47.9407,-23.1,-68.8,-145.73,-0.02,-1.18,0.52
13:16:48.2202,-22.99,-68.65,-145.81,0.59,-1.0,2.29
13:16:48.7360,-22.9,-68.49,-145.87,-0.14,-1.48,-1.12
13:16:48.1228,-22.78,-68.27,-145.96,0.1,-1.36,-0.39
13:16:48.1893,-22.59,-68.08,-146.12,0.35,-1.42,0.22
13:16:48.2545,-22.46,-67.87,-146.2,0.29,-0.93,0.4
13:16:48.3219,-22.35,-67.66,-146.28,0.29,-0.75,0.83
13:16:48.3885,-22.23,-67.45,-146.35,0.35,-0.75,0.1
13:16:48.4556,-22.08,-67.25,-146.45,0.53,-0.81,1.13
13:16:48.5219,-21.93,-67.05,-146.57,0.29,-0.87,0.64
13:16:48.5888,-21.78,-66.84,-146.67,0.35,-1.85,0.34
13:16:48.6558,-21.62,-66.64,-146.79,0.1,-3.31,-1.61
13:16:48.7236,-21.43,-66.48,-146.96,0.47,-1.61,1.07
13:16:48.7886,-21.23,-66.3,-147.11,0.1,-0.81,-0.51
13:16:48.8563,-21.09,-66.1,-147.21,0.23,-0.81,2.35
13:16:48.9223,-20.91,-65.9,-147.34,0.1,-0.81,0.34
13:16:48.9890,-20.76,-65.7,-147.48,0.04,-1.48,0.58
13:16:49.5644,-20.61,-65.48,-147.55,-0.2,-4.29,-1.43
13:16:49.1244,-20.46,-65.28,-147.65,-0.14,-3.25,-1.06
13:16:49.1899,-20.3,-65.1,-147.78,-0.08,-2.34,0.1
13:16:49.2567,-20.18,-64.9,-147.84,-0.08,-2.58,-1.73
13:16:49.3319,-20.06,-64.69,-147.92,-0.38,-2.89,-1.86
13:16:49.3916,-19.92,-64.48,-148.01,-0.08,-3.92,-2.53
13:16:49.4588,-19.76,-64.29,-148.13,-0.32,-3.86,-2.46
13:16:49.5250,-19.58,-64.1,-148.27,-0.2,-4.9,-0.94
13:16:49.5919,-19.42,-63.9,-148.39,0.65,-2.89,-0.15
13:16:49.6641,-19.27,-63.71,-148.5,-0.14,-4.11,-1.0
13:16:49.7265,-19.1,-63.52,-148.61,0.9,-3.43,0.46
13:16:49.7935,-18.99,-63.32,-148.68,1.02,-3.92,-0.45
13:16:49.8595,-18.9,-63.11,-148.76,0.47,-3.98,-0.82
13:16:49.9261,-18.73,-62.91,-148.87,0.9,-3.86,0.22
13:16:49.9929,-18.57,-62.71,-149.0,0.71,-1.3,1.93
13:16:50.6159,-18.45,-62.51,-149.08,0.84,-2.64,0.58
13:16:50.1275,-18.37,-62.3,-149.11,0.77,-2.82,1.19
13:16:50.1939,-18.24,-62.09,-149.23,1.32,-2.95,2.29
13:16:50.2604,-18.13,-61.86,-149.29,-0.2,-3.62,-2.22
13:16:50.3334,-17.99,-61.63,-149.41,-0.32,-4.17,-2.1
13:16:50.4092,-17.86,-61.44,-149.54,-0.08,-2.89,-1.55
13:16:50.4738,-17.71,-61.25,-149.69,0.23,-4.47,-0.76
13:16:50.5344,-17.59,-61.07,-149.81,0.71,-2.15,1.99
13:16:50.5948,-17.47,-60.86,-149.89,0.53,-2.15,2.6
13:16:50.6614,-17.37,-60.65,-149.95,1.26,-3.56,2.72
13:16:50.7278,-17.27,-60.44,-150.0,1.32,-3.56,3.57
13:16:50.7945,-17.14,-60.23,-150.1,1.26,-2.58,2.29
13:16:50.8615,-17.01,-60.03,-150.19,0.84,-2.09,1.93
13:16:50.9283,-16.87,-59.82,-150.27,0.41,-1.85,1.32
13:16:50.9953,-16.75,-59.61,-150.37,0.04,-1.85,0.46
13:16:51.6232,-16.63,-59.4,-150.46,-0.2,-1.36,-0.39
13:16:51.1294,-16.56,-59.18,-150.49,-0.26,-1.42,-1.31
13:16:51.1963,-16.48,-58.96,-150.52,-0.2,-1.12,-0.88
13:16:51.2626,-16.37,-58.75,-150.59,-0.2,-1.97,-0.51
13:16:51.3303,-16.18,-58.53,-150.76,0.29,-2.03,0.95
13:16:51.4047,-16.1,-58.33,-150.83,0.1,-2.22,-0.88
13:16:51.4642,-15.98,-58.12,-150.92,-0.08,-1.54,-0.76
13:16:51.5301,-15.9,-57.91,-150.95,-0.44,-1.24,-1.92
13:16:51.5967,-15.83,-57.68,-151.01,-0.08,-4.04,-1.92
13:16:51.6664,-15.74,-57.47,-151.05,-0.08,-1.61,-1.37
13:16:51.7296,-15.64,-57.25,-151.1,-0.02,-3.25,-2.1
13:16:51.7973,-15.52,-57.03,-151.18,0.16,-3.98,-1.92
13:16:51.8645,-15.42,-56.82,-151.23,0.16,-3.07,-2.22
13:16:51.9303,-15.33,-56.59,-151.3,0.29,-3.56,-2.1
13:16:51.9983,-15.23,-56.37,-151.37,0.35,-4.35,-1.49
13:16:52.6786,-15.11,-56.14,-151.47,1.02,-4.78,1.86
13:16:52.1342,-15.0,-55.92,-151.53,0.84,-4.78,0.71
13:16:52.1994,-14.91,-55.69,-151.58,0.16,-1.67,-0.45
13:16:52.2702,-14.81,-55.48,-151.63,0.53,-4.35,0.71
13:16:52.3335,-14.72,-55.27,-151.69,0.84,-5.39,0.46
13:16:52.3998,-14.63,-55.04,-151.76,0.9,-5.57,1.01
13:16:52.4667,-14.54,-54.82,-151.82,0.9,-5.45,0.46
13:16:52.5332,-14.44,-54.6,-151.85,0.96,-5.2,-0.09
13:16:52.6005,-14.35,-54.37,-151.91,0.77,-5.2,-0.33
13:16:52.6675,-14.26,-54.15,-151.95,0.77,-4.9,-0.39
13:16:52.7338,-14.17,-53.92,-152.02,0.59,-4.41,-0.33
13:16:52.8005,-14.09,-53.69,-152.08,0.59,-3.86,-0.57
13:16:52.8676,-14.0,-53.47,-152.14,0.84,-4.47,-0.7
13:16:52.9345,-13.87,-53.16,-152.26,-0.14,-2.22,-1.12
13:16:53.3589,-13.77,-52.94,-152.38,-0.08,-2.22,-0.82
13:16:53.1000,-13.68,-52.71,-152.47,0.1,-3.31,-0.27
13:16:53.1600,-13.65,-52.52,-152.5,-0.14,-1.91,0.04
13:16:53.2106,-13.58,-52.32,-152.55,0.04,-1.67,-2.28
13:16:53.2697,-13.51,-52.09,-152.6,0.16,-1.85,-2.1
13:16:53.3370,-13.42,-51.86,-152.65,0.04,-1.85,-2.04
13:16:53.4039,-13.34,-51.63,-152.7,-0.08,-1.97,-2.04
13:16:53.4696,-13.25,-51.39,-152.76,0.23,-2.7,-1.49
13:16:53.5365,-13.18,-51.17,-152.79,0.16,-2.03,-1.55
13:16:53.6030,-13.11,-50.93,-152.83,0.04,-2.95,-2.53
13:16:53.6743,-13.03,-50.69,-152.86,-0.14,-1.48,-1.86
13:16:53.7399,-12.96,-50.45,-152.93,0.04,-2.82,-2.34
13:16:53.8091,-12.87,-50.22,-153.02,-0.26,-2.4,-2.34
13:16:53.8705,-12.8,-49.98,-153.08,0.04,-2.58,-2.4
13:16:53.9377,-12.73,-49.74,-153.13,0.29,-3.07,-2.16
13:16:54.4498,-12.66,-49.5,-153.19,0.59,-3.62,-1.98
13:16:54.7238,-12.59,-49.26,-153.25,0.29,-3.13,-2.04
13:16:54.1384,-12.52,-49.02,-153.27,0.47,-3.62,-2.1
13:16:54.2052,-12.44,-48.77,-153.33,1.08,-5.32,-1.92
13:16:54.2724,-12.37,-48.53,-153.38,1.08,-5.26,-1.92
13:16:54.3394,-12.3,-48.3,-153.44,0.16,-2.46,-1.31
13:16:54.4047,-12.24,-48.05,-153.48,0.71,-4.41,-1.37
13:16:54.4724,-12.17,-47.81,-153.52,0.53,-3.74,-1.12
13:16:54.5393,-12.11,-47.56,-153.55,0.71,-4.29,-1.31
13:16:54.6057,-12.05,-47.33,-153.61,0.35,-3.31,-1.06
13:16:54.6716,-11.98,-47.07,-153.66,1.08,-5.69,-1.0
13:16:54.7404,-11.92,-46.82,-153.72,0.9,-5.63,-0.76
13:16:54.8063,-11.86,-46.59,-153.77,0.53,-3.56,-0.51
13:16:54.8725,-11.8,-46.33,-153.81,1.14,-5.75,-0.64
13:16:54.9403,-11.73,-46.08,-153.86,1.02,-5.2,-0.33
13:16:55.6656,-11.66,-45.83,-153.92,0.96,-6.18,-0.39
13:16:55.7437,-11.6,-45.58,-153.97,0.84,-6.06,-0.21
13:16:55.1413,-11.54,-45.33,-154.01,0.9,-6.42,0.28
13:16:55.2071,-11.47,-45.07,-154.08,1.02,-6.42,0.4
13:16:55.2732,-11.41,-44.81,-154.12,0.35,-4.47,-0.33
13:16:55.3422,-11.36,-44.56,-154.16,-0.26,-2.15,-1.43
13:16:55.4095,-11.3,-44.3,-154.22,0.84,-6.18,0.64
13:16:55.4753,-11.25,-44.05,-154.26,0.84,-5.75,0.4
13:16:55.5415,-11.19,-43.79,-154.3,0.65,-5.26,0.64
13:16:55.6093,-11.14,-43.52,-154.35,-0.02,-1.54,-1.43
13:16:55.6801,-11.08,-43.27,-154.39,0.16,-3.56,0.1
13:16:55.7436,-11.03,-43.01,-154.44,-0.08,-2.82,-0.33
13:16:55.8119,-10.99,-42.74,-154.5,-0.02,-2.46,-0.45
13:16:55.8767,-10.95,-42.47,-154.58,-0.2,-1.97,-0.7
13:16:55.9434,-10.89,-42.21,-154.63,-0.08,-2.76,-0.15
13:16:56.9595,-10.83,-41.94,-154.68,-0.32,-1.36,-0.76
13:16:56.7765,-10.77,-41.68,-154.74,-0.32,-1.61,-0.45
13:16:56.1436,-10.72,-41.41,-154.78,-0.02,-2.09,-0.7
13:16:56.2121,-10.68,-41.13,-154.83,0.23,-2.76,-0.51
13:16:56.2783,-10.63,-40.87,-154.87,-0.14,-2.09,-0.57
13:16:56.3443,-10.57,-40.59,-154.95,0.1,-2.46,-0.51
13:16:56.4117,-10.52,-40.32,-155.01,-0.32,-1.79,-0.51
13:16:56.4785,-10.48,-40.05,-155.07,-0.08,-1.97,-0.39
13:16:56.5447,-10.44,-39.77,-155.13,-0.14,-2.22,-0.09
13:16:56.6118,-10.39,-39.49,-155.18,0.16,-2.58,-0.09
13:16:56.6790,-10.34,-39.21,-155.24,0.41,-4.47,0.46
13:16:56.7466,-10.29,-38.94,-155.29,0.23,-3.56,0.16
13:16:56.8129,-10.25,-38.66,-155.35,-0.08,-3.19,-0.03
13:16:56.8790,-10.2,-38.37,-155.4,0.04,-3.56,0.46
13:16:56.9460,-10.16,-38.08,-155.46,0.29,-3.98,0.95
13:16:57.1279,-10.11,-37.79,-155.5,0.47,-4.59,1.44
13:16:57.8042,-10.08,-37.51,-155.56,0.59,-5.2,1.19
13:16:57.1475,-10.04,-37.21,-155.62,0.71,-5.45,1.01
13:16:57.2144,-10.0,-36.92,-155.67,0.65,-5.69,1.07
13:16:57.2844,-9.96,-36.62,-155.74,0.47,-5.81,1.25
13:16:57.3482,-9.92,-36.32,-155.82,0.16,-4.78,0.1
13:16:57.4156,-9.88,-36.04,-155.86,0.59,-4.84,1.62
13:16:57.4814,-9.85,-35.73,-155.92,0.53,-5.26,1.56
13:16:57.5476,-9.83,-35.43,-155.96,0.47,-5.45,1.19
13:16:57.6146,-9.8,-35.11,-156.01,-0.2,-4.17,-0.27
13:16:57.6865,-9.78,-34.81,-156.06,-0.14,-3.56,-0.57
13:16:57.7506,-9.75,-34.51,-156.1,-0.02,-4.72,0.77
13:16:57.8159,-9.7,-34.04,-156.23,0.23,-3.86,0.28
13:16:57.9168,-9.67,-33.75,-156.29,0.53,-4.84,1.07
13:16:57.9822,-9.66,-33.54,-156.35,-0.14,-3.31,-1.61
13:16:58.2673,-9.61,-33.28,-156.41,0.16,-4.17,0.58
13:16:58.8257,-9.58,-32.96,-156.45,0.04,-4.23,0.34
13:16:58.1499,-9.56,-32.65,-156.52,-0.02,-3.98,0.28
13:16:58.2172,-9.53,-32.32,-156.58,-0.26,-4.23,-0.03
13:16:58.2838,-9.51,-31.99,-156.62,-0.32,-4.17,-0.03
13:16:58.3505,-9.49,-31.67,-156.69,-0.44,-4.53,0.04
13:16:58.4175,-9.47,-31.34,-156.75,-0.44,-4.04,-0.09
13:16:58.4837,-9.45,-31.02,-156.79,-0.26,-4.17,-0.21
13:16:58.5506,-9.44,-30.69,-156.82,-0.08,-4.23,-0.09
13:16:58.6174,-9.42,-30.35,-156.89,-0.32,-4.11,-0.03
13:16:58.6845,-9.39,-30.02,-156.94,-0.2,-4.23,-0.33
13:16:58.7513,-9.35,-29.69,-156.99,-0.32,-4.47,-0.39
13:16:58.8181,-9.32,-29.36,-157.06,-0.26,-4.59,-0.33
13:16:58.8846,-9.29,-29.03,-157.12,-0.44,-5.02,-0.27
13:16:58.9515,-9.25,-28.69,-157.21,0.16,-5.26,0.04
13:16:59.1846,-9.2,-28.35,-157.29,0.59,-5.75,0.1
13:16:59.8573,-9.16,-28.01,-157.37,0.53,-5.87,0.34
13:16:59.1525,-9.12,-27.67,-157.48,0.59,-6.06,0.77
13:16:59.2195,-9.08,-27.33,-157.58,0.71,-6.12,1.13
13:16:59.2864,-9.04,-26.98,-157.66,0.65,-6.24,0.46
13:16:59.3533,-8.99,-26.63,-157.76,0.71,-6.3,0.77
13:16:59.4202,-8.95,-26.28,-157.86,0.53,-6.24,0.04
13:16:59.4854,-8.91,-25.93,-157.96,0.1,-5.08,-1.25
13:16:59.5524,-8.86,-25.57,-158.04,0.53,-5.87,-0.45
13:16:59.6203,-8.82,-25.2,-158.16,1.08,-5.81,0.77
13:16:59.6905,-8.8,-24.82,-158.26,0.77,-6.73,-0.51
13:16:59.7561,-8.77,-24.45,-158.38,0.84,-6.54,-0.45
13:16:59.8194,-8.72,-24.09,-158.5,0.84,-6.48,-0.15
13:16:59.8865,-8.66,-23.71,-158.58,0.96,-5.81,0.64
13:16:59.9544,-8.62,-23.35,-158.69,0.9,-6.18,-0.03
13:17:00.2045,-8.57,-22.98,-158.79,0.84,-6.18,-0.03
13:17:00.8747,-8.52,-22.59,-158.89,0.53,-5.02,-0.09
13:17:00.1553,-8.48,-22.22,-158.99,0.35,-4.84,-0.39
13:17:00.2223,-8.43,-21.83,-159.1,0.59,-4.47,-0.64
13:17:00.2893,-8.39,-21.45,-159.23,0.65,-4.47,-0.94
13:17:00.3563,-8.34,-21.08,-159.35,0.53,-4.96,-0.88
13:17:00.4227,-8.3,-20.68,-159.47,0.47,-5.26,-1.43
13:17:00.4894,-8.26,-20.28,-159.58,0.53,-5.87,-1.55
13:17:00.5562,-8.24,-19.85,-159.69,0.65,-6.06,-1.43
13:17:00.6218,-8.24,-19.39,-159.81,-0.02,-6.12,-2.4
13:17:00.6897,-8.27,-18.9,-159.91,-0.44,-6.85,-3.5
13:17:00.7564,-8.32,-18.38,-159.99,0.47,-5.02,-1.37
13:17:00.8234,-8.26,-17.97,-160.13,0.1,-5.2,-2.4
13:17:00.8903,-8.22,-17.56,-160.27,0.41,-5.2,-2.1
13:17:00.9573,-8.17,-17.14,-160.42,0.1,-5.14,-2.65
13:17:01.2425,-8.12,-16.72,-160.58,0.23,-5.75,-2.71
13:17:01.9146,-8.06,-16.3,-160.75,0.35,-6.42,-2.77
13:17:01.1584,-8.0,-15.87,-160.91,0.77,-7.03,-1.61
13:17:01.2266,-7.95,-15.44,-161.07,0.47,-6.79,-2.59
13:17:01.2924,-7.9,-14.97,-161.28,0.29,-5.08,-0.7
13:17:01.3644,-7.85,-14.57,-161.48,0.35,-6.73,-2.95
13:17:01.4254,-7.79,-14.12,-161.68,0.77,-7.34,-3.01
13:17:01.4923,-7.74,-13.67,-161.84,0.47,-6.67,-3.56
13:17:01.5586,-7.7,-13.2,-162.05,0.1,-6.54,-4.11
13:17:01.6256,-7.63,-12.72,-162.26,1.02,-7.58,-2.4
13:17:01.6962,-7.59,-12.26,-162.42,0.23,-6.91,-4.05
13:17:01.7597,-7.54,-11.77,-162.63,0.53,-7.09,-3.93
13:17:01.8263,-7.49,-11.29,-162.84,-0.02,-7.15,-4.11
13:17:01.8933,-7.44,-10.79,-163.04,0.29,-7.22,-4.23
13:17:01.9598,-7.39,-10.28,-163.28,0.47,-7.46,-4.11
13:17:02.2716,-7.34,-9.76,-163.44,1.32,-7.95,-3.44
13:17:02.9435,-7.29,-9.24,-163.6,0.96,-8.31,-4.11
13:17:02.1611,-7.24,-8.72,-163.83,0.59,-8.19,-3.93
13:17:02.2265,-7.19,-8.17,-163.98,1.45,-8.43,-3.68
13:17:02.2948,-7.13,-7.62,-164.14,1.38,-8.07,-3.62
13:17:02.3614,-7.07,-7.07,-164.27,1.32,-8.19,-3.5
13:17:02.4276,-7.01,-6.51,-164.33,1.45,-8.43,-3.44
13:17:02.4943,-6.96,-5.93,-164.39,1.38,-8.56,-3.01
13:17:02.5606,-6.89,-5.32,-164.4,1.32,-8.98,-2.83
13:17:02.6285,-6.84,-4.73,-164.46,1.63,-9.53,-2.16
13:17:02.6943,-6.78,-4.1,-164.46,1.63,-9.35,-2.46
13:17:02.7614,-6.71,-3.49,-164.45,1.51,-9.65,-1.98
13:17:02.8282,-6.63,-2.87,-164.45,1.2,-10.32,-1.98
13:17:02.8952,-6.55,-2.2,-164.46,1.26,-9.41,-1.37
13:17:02.9627,-6.47,-1.54,-164.47,2.24,-8.5,-1.37
13:17:03.2871,-6.39,-0.84,-164.49,1.14,-8.43,-1.25
13:17:03.9641,-6.31,-0.12,-164.51,1.69,-8.68,-1.92
13:17:03.1630,-6.22,0.97,-164.62,5.71,-14.84,7.9
13:17:03.2447,-6.1,1.85,-165.43,-6.18,-9.04,17.35
13:17:03.3238,-6.19,2.72,-167.27,-1.66,-12.28,48.39
13:17:03.3787,-6.67,3.33,-171.58,-5.57,-15.39,96.74
13:17:03.4369,-7.03,2.49,-177.31,-3.74,28.76,72.11
13:17:03.4975,-7.34,-0.36,-178.4,-11.6,43.7,-17.71
13:17:03.5654,-7.42,-0.75,-176.31,2.3,-12.95,-28.38
13:17:03.6306,-7.43,-0.17,-175.57,-1.97,-4.59,-0.94
13:17:03.6999,-7.59,0.29,-175.69,1.2,-6.79,14.67
13:17:03.7668,-7.63,0.91,-176.53,1.32,-3.43,16.32
13:17:03.8319,-7.68,0.7,-177.52,-4.47,13.15,1.56
13:17:03.8999,-7.69,0.29,-176.42,-3.86,-0.87,-10.7
13:17:03.9687,-7.71,0.1,-176.12,-0.57,-3.43,4.61
13:17:04.3328,-7.69,0.22,-176.12,-0.32,-5.51,1.13
13:17:04.1005,-7.75,0.59,-176.17,0.84,-4.11,7.23
13:17:04.1670,-7.8,0.89,-176.38,0.71,3.52,3.14
13:17:04.2337,-7.85,0.53,-176.12,-0.02,-0.2,-6.12
13:17:04.3005,-7.85,0.25,-175.62,1.02,-2.82,-3.14
13:17:04.3673,-7.8,0.22,-175.59,-0.08,-4.9,1.19
13:17:04.4343,-7.85,0.4,-175.54,0.29,-3.62,1.93
13:17:04.5005,-7.9,0.6,-175.55,0.65,-0.2,2.17
13:17:04.5673,-7.92,0.53,-175.35,1.26,-0.51,-0.88
13:17:04.6343,-7.87,0.34,-175.18,-0.81,-1.91,0.16
13:17:04.7014,-7.81,0.26,-175.05,2.3,-3.5,2.66
13:17:04.7681,-7.84,0.34,-174.99,0.9,-2.4,1.25
13:17:04.8347,-7.89,0.48,-174.94,-0.32,0.04,0.83
13:17:04.9006,-7.93,0.47,-174.85,-0.32,1.5,0.89
13:17:04.9674,-7.93,0.33,-174.8,-0.32,1.02,-0.21
13:17:05.3444,-7.92,0.22,-174.78,0.0,0.0,0.0
13:17:05.1025,-7.94,0.26,-174.71,0.0,0.0,0.0
13:17:05.1684,-7.96,0.35,-174.65,0.0,0.0,0.0
13:17:05.2354,-7.98,0.36,-174.6,0.04,0.71,0.04
13:17:05.3027,-7.99,0.27,-174.55,0.0,0.0,0.0
13:17:05.3703,-7.98,0.2,-174.53,-0.02,-0.75,-0.03
13:17:05.4362,-7.98,0.23,-174.5,0.1,-0.87,-0.09
13:17:05.5035,-8.0,0.29,-174.5,0.0,0.0,0.0
13:17:05.5702,-8.02,0.29,-174.47,0.0,0.0,0.0
13:17:05.6372,-8.02,0.23,-174.44,0.0,0.0,0.0
13:17:05.7065,-8.02,0.19,-174.42,0.0,0.0,0.0
13:17:05.7704,-8.03,0.2,-174.37,0.0,0.0,0.0
13:17:05.8375,-8.04,0.24,-174.37,0.0,0.0,0.0
13:17:05.9044,-8.05,0.23,-174.35,0.0,0.0,0.0
13:17:05.9713,-8.05,0.19,-174.35,0.0,0.0,0.0
13:17:06.3999,-8.05,0.16,-174.35,0.0,0.0,0.0
13:17:06.1056,-8.06,0.18,-174.35,0.0,0.0,0.0
13:17:06.1724,-8.07,0.21,-174.35,0.0,0.0,0.0
13:17:06.2381,-8.07,0.19,-174.34,0.0,0.0,0.0
13:17:06.3062,-8.07,0.16,-174.34,0.0,0.0,0.0
13:17:06.3777,-8.08,0.15,-174.34,0.0,0.0,0.0
13:17:06.4396,-8.09,0.17,-174.34,0.0,0.0,0.0
13:17:06.5052,-8.09,0.18,-174.34,0.0,0.0,0.0
13:17:06.5722,-8.09,0.16,-174.34,0.0,0.0,0.0
13:17:06.6439,-8.09,0.14,-174.34,0.0,0.0,0.0
13:17:06.7065,-8.1,0.14,-174.34,0.0,0.0,0.0
13:17:06.7723,-8.1,0.16,-174.34,0.0,0.0,0.0
13:17:06.8394,-8.11,0.16,-174.34,0.0,0.0,0.0
13:17:06.9061,-8.11,0.14,-174.34,0.0,0.0,0.0
13:17:06.9731,-8.11,0.13,-174.34,0.0,0.0,0.0
13:17:07.4026,-8.11,0.14,-174.34,0.0,0.0,0.0
13:17:07.1072,-8.11,0.15,-174.34,0.0,0.0,0.0
13:17:07.1742,-8.12,0.14,-174.34,0.0,0.0,0.0
13:17:07.2406,-8.12,0.13,-174.34,0.0,0.0,0.0
13:17:07.3081,-8.12,0.13,-174.34,0.0,0.0,0.0
13:17:07.3746,-8.12,0.14,-174.34,0.0,0.0,0.0
13:17:07.4416,-8.13,0.15,-174.34,0.0,0.0,0.0
13:17:07.5086,-8.13,0.13,-174.34,0.0,0.0,0.0
13:17:07.5755,-8.13,0.12,-174.34,0.0,0.0,0.0
13:17:07.6426,-8.13,0.13,-174.34,0.0,0.0,0.0
13:17:07.7140,-8.13,0.14,-174.34,0.0,0.0,0.0
13:17:07.7798,-8.13,0.14,-174.34,0.0,0.0,0.0
13:17:07.8438,-8.13,0.13,-174.34,0.0,0.0,0.0
13:17:07.9102,-8.14,0.13,-174.34,0.0,0.0,0.0
13:17:07.9771,-8.14,0.13,-174.34,0.0,0.0,0.0
13:17:08.4416,-8.14,0.14,-174.34,0.0,0.0,0.0
13:17:08.1113,-8.14,0.13,-174.34,0.0,0.0,0.0
13:17:08.1782,-8.14,0.13,-174.34,0.0,0.0,0.0
13:17:08.2446,-8.14,0.13,-174.34,0.0,0.0,0.0
13:17:08.3121,-8.14,0.14,-174.34,0.0,0.0,0.0
13:17:08.4103,-8.14,0.13,-174.34,0.0,0.0,0.0
13:17:08.4772,-8.14,0.12,-174.34,0.0,0.0,0.0
13:17:08.5393,-8.14,0.12,-174.34,0.0,0.0,0.0
13:17:08.5906,-8.14,0.13,-174.34,0.0,0.0,0.0
13:17:08.6474,-8.14,0.13,-174.34,0.0,0.0,0.0
13:17:08.7127,-8.14,0.13,-174.34,0.0,0.0,0.0
13:17:08.7808,-8.15,0.12,-174.34,0.0,0.0,0.0
13:17:08.8467,-8.15,0.13,-174.34,0.0,0.0,0.0
13:17:08.9138,-8.15,0.13,-174.34,0.0,0.0,0.0
13:17:08.9803,-8.15,0.13,-174.34,0.0,0.0,0.0
13:17:09.4739,-8.15,0.12,-174.34,0.0,0.0,0.0
13:17:09.1178,-8.14,0.12,-174.34,0.0,0.0,0.0
13:17:09.1856,-8.15,0.13,-174.34,0.0,0.0,0.0
13:17:09.2477,-8.15,0.13,-174.34,0.0,0.0,0.0
13:17:09.3183,-8.15,0.13,-174.34,0.0,0.0,0.0
13:17:09.3813,-8.15,0.12,-174.34,0.0,0.0,0.0
13:17:09.4473,-8.15,0.12,-174.34,0.0,0.0,0.0
13:17:09.5146,-8.15,0.13,-174.34,0.0,0.0,0.0
13:17:09.5804,-8.15,0.13,-174.34,0.0,0.0,0.0
13:17:09.6473,-8.16,0.13,-174.34,0.0,0.0,0.0
13:17:09.7180,-8.15,0.12,-174.34,0.0,0.0,0.0
13:17:09.7840,-8.16,0.13,-174.34,0.0,0.0,0.0
13:17:09.8481,-8.16,0.13,-174.34,0.0,0.0,0.0
13:17:09.9156,-8.16,0.13,-174.34,0.0,0.0,0.0
13:17:09.9815,-8.16,0.13,-174.34,0.0,0.0,0.0
13:17:10.4918,-8.16,0.12,-174.34,0.0,0.0,0.0
13:17:10.1172,-8.17,0.13,-174.34,0.0,0.0,0.0
13:17:10.1841,-8.16,0.13,-174.34,0.0,0.0,0.0
13:17:10.2503,-8.17,0.12,-174.34,0.0,0.0,0.0
13:17:10.3181,-8.17,0.12,-174.34,0.0,0.0,0.0
13:17:10.3843,-8.16,0.12,-174.34,0.0,0.0,0.0
13:17:10.4501,-8.16,0.12,-174.34,0.0,0.0,0.0
13:17:10.5174,-8.17,0.12,-174.34,0.0,0.0,0.0
13:17:10.5845,-8.17,0.12,-174.34,0.0,0.0,0.0
13:17:10.6514,-8.17,0.12,-174.34,0.0,0.0,0.0
13:17:10.7182,-8.17,0.12,-174.34,0.0,0.0,0.0
13:17:10.7842,-8.17,0.12,-174.34,0.0,0.0,0.0
13:17:10.8511,-8.17,0.12,-174.34,0.0,0.0,0.0
13:17:10.9186,-8.16,0.12,-174.34,0.0,0.0,0.0
13:17:10.9846,-8.16,0.12,-174.34,0.0,0.0,0.0
13:17:11.5177,-8.16,0.12,-174.34,0.0,0.0,0.0
13:17:11.1191,-8.16,0.12,-174.34,0.0,0.0,0.0
13:17:11.1856,-8.17,0.12,-174.34,0.0,0.0,0.0
13:17:11.2524,-8.16,0.12,-174.34,0.0,0.0,0.0
13:17:11.3196,-8.17,0.12,-174.34,0.0,0.0,0.0
13:17:11.3892,-8.17,0.12,-174.34,0.0,0.0,0.0
13:17:11.4557,-8.17,0.11,-174.34,0.0,0.0,0.0
13:17:11.5202,-8.17,0.11,-174.34,0.0,0.0,0.0
13:17:11.5868,-8.17,0.12,-174.34,0.0,0.0,0.0
13:17:11.6546,-8.17,0.11,-174.34,0.0,0.0,0.0
13:17:11.7230,-8.17,0.11,-174.34,0.0,0.0,0.0
13:17:11.7882,-8.17,0.12,-174.34,0.0,0.0,0.0
13:17:11.8558,-8.17,0.12,-174.34,0.0,0.0,0.0
13:17:11.9237,-8.17,0.12,-174.34,0.0,0.0,0.0
13:17:11.9892,-8.17,0.12,-174.34,0.0,0.0,0.0
13:17:12.5535,-8.17,0.12,-174.34,0.0,0.0,0.0
13:17:12.1232,-8.17,0.12,-174.34,0.0,0.0,0.0
13:17:12.1901,-8.17,0.12,-174.34,0.0,0.0,0.0
13:17:12.2565,-8.17,0.12,-174.34,0.0,0.0,0.0
13:17:12.3233,-8.17,0.12,-174.34,0.0,0.0,0.0
13:17:12.3912,-8.17,0.13,-174.34,0.0,0.0,0.0
13:17:12.4573,-8.16,0.13,-174.34,0.0,0.0,0.0
13:17:12.5228,-8.17,0.13,-174.34,0.0,0.0,0.0
13:17:12.5905,-8.16,0.13,-174.34,0.0,0.0,0.0
13:17:12.6566,-8.17,0.13,-174.34,0.0,0.0,0.0
13:17:12.7233,-8.17,0.13,-174.34,0.0,0.0,0.0
13:17:12.7916,-8.17,0.13,-174.34,0.0,0.0,0.0
13:17:12.8571,-8.17,0.13,-174.34,0.0,0.0,0.0
13:17:12.9251,-8.17,0.13,-174.34,0.0,0.0,0.0
13:17:12.9908,-8.17,0.13,-174.34,0.0,0.0,0.0
13:17:13.5786,-8.17,0.13,-174.34,0.0,0.0,0.0
13:17:13.1253,-8.16,0.13,-174.32,-0.07,-0.02,-0.94
13:17:13.1922,-8.16,0.13,-174.28,0.0,0.0,0.0
13:17:13.2583,-8.16,0.13,-174.28,-0.19,0.23,-0.51
13:17:13.3274,-8.17,0.13,-174.26,0.0,0.0,0.0
13:17:13.3924,-8.17,0.12,-174.23,0.0,0.0,0.0
13:17:13.4603,-8.17,0.13,-174.23,0.0,0.0,0.0
13:17:13.5257,-8.18,0.12,-174.24,0.05,-0.14,1.8
13:17:13.5925,-8.16,0.13,-174.3,0.0,0.0,0.0
13:17:13.6806,-8.16,0.12,-174.27,0.05,0.1,-0.7
13:17:13.7623,-8.17,0.12,-174.18,-0.01,0.16,-0.94
13:17:13.8206,-8.17,0.12,-174.18,0.0,0.0,0.0
13:17:13.8685,-8.17,0.12,-174.18,0.0,0.0,0.0
13:17:13.9300,-8.16,0.12,-174.17,0.11,0.41,-0.76
13:17:13.9935,-8.15,0.13,-173.89,-0.43,0.16,-5.27
13:17:14.6087,-8.2,0.09,-174.22,-0.92,-0.75,2.41
13:17:14.1282,-8.22,0.16,-174.01,1.33,-3.19,5.28
13:17:14.1947,-8.19,0.12,-173.99,-0.86,0.71,-5.27
13:17:14.2624,-8.2,0.13,-173.72,-0.19,0.41,-1.73
13:17:14.3286,-8.21,0.11,-173.65,0.05,-0.51,-0.76
13:17:14.3963,-8.22,0.11,-173.64,0.0,0.0,0.0
13:17:14.4628,-8.21,0.12,-173.69,0.0,0.0,0.0
13:17:14.5293,-8.21,0.13,-173.67,0.0,0.0,0.0
13:17:14.5951,-8.21,0.12,-173.6,0.0,0.0,0.0
13:17:14.6633,-8.21,0.13,-173.62,0.0,0.0,0.0
13:17:14.7292,-8.2,0.13,-173.58,-0.01,0.1,-2.1
13:17:14.7957,-8.21,0.13,-173.51,0.0,0.0,0.0
13:17:14.8628,-8.22,0.12,-173.61,0.0,0.0,0.0
13:17:14.9295,-8.22,0.12,-173.61,0.05,0.41,1.25
13:17:14.9962,-8.22,0.09,-174.02,-2.02,-1.18,-1.25
13:17:15.6360,-8.22,0.1,-173.89,1.46,-2.34,-0.88
13:17:15.1305,-8.21,0.12,-173.83,0.17,-0.14,1.19
13:17:15.1974,-8.22,0.12,-173.74,-0.13,-0.45,-1.31
13:17:15.2645,-8.21,0.13,-173.72,0.0,0.0,0.0
13:17:15.3314,-8.21,0.13,-173.73,0.0,0.0,0.0
13:17:15.3981,-8.21,0.12,-173.73,0.0,0.0,0.0
13:17:15.4647,-8.21,0.12,-173.73,-0.07,0.29,-0.51
13:17:15.5324,-8.21,0.13,-173.73,0.0,0.0,0.0
13:17:15.5994,-8.21,0.13,-173.73,0.0,0.0,0.0
13:17:15.6661,-8.21,0.13,-173.73,0.0,0.0,0.0
13:17:15.7361,-8.21,0.13,-173.73,0.0,0.0,0.0
13:17:15.7998,-8.22,0.13,-173.73,0.0,0.0,0.0
13:17:15.8665,-8.22,0.13,-173.73,0.0,0.0,0.0
13:17:15.9322,-8.22,0.13,-173.73,0.0,0.0,0.0
13:17:15.9993,-8.22,0.13,-173.73,0.0,0.0,0.0
13:17:16.6775,-8.22,0.13,-173.73,0.0,0.0,0.0
13:17:16.1335,-8.22,0.13,-173.73,0.0,0.0,0.0
13:17:16.2015,-8.22,0.13,-173.73,0.0,0.0,0.0
13:17:16.2671,-8.22,0.13,-173.73,0.0,0.0,0.0
13:17:16.3443,-8.22,0.13,-173.73,0.0,0.0,0.0
13:17:16.4084,-8.22,0.13,-173.73,0.0,0.0,0.0
13:17:16.4696,-8.22,0.13,-173.73,0.0,0.0,0.0
13:17:16.5347,-8.22,0.13,-173.73,0.0,0.0,0.0
13:17:16.6006,-8.23,0.13,-173.73,0.0,0.0,0.0
13:17:16.6676,-8.22,0.13,-173.73,0.0,0.0,0.0
13:17:16.7354,-8.22,0.13,-173.73,0.0,0.0,0.0
13:17:16.8013,-8.22,0.13,-173.73,0.0,0.0,0.0
13:17:16.8683,-8.22,0.13,-173.73,0.0,0.0,0.0
13:17:16.9350,-8.22,0.13,-173.73,0.0,0.0,0.0
13:17:17.1767,-8.22,0.13,-173.73,0.0,0.0,0.0
13:17:17.6932,-8.22,0.13,-173.73,0.0,0.0,0.0
13:17:17.1363,-8.23,0.13,-173.73,0.0,0.0,0.0
13:17:17.2031,-8.22,0.13,-173.73,0.0,0.0,0.0
13:17:17.2691,-8.22,0.13,-173.73,0.0,0.0,0.0
13:17:17.3373,-8.22,0.13,-173.73,0.0,0.0,0.0
13:17:17.4044,-8.22,0.13,-173.73,0.0,0.0,0.0
13:17:17.4712,-8.22,0.13,-173.73,0.0,0.0,0.0
13:17:17.5366,-8.22,0.13,-173.73,0.0,0.0,0.0
13:17:17.6044,-8.22,0.13,-173.73,0.0,0.0,0.0
13:17:17.6716,-8.22,0.13,-173.73,0.0,0.0,0.0
13:17:17.7406,-8.22,0.13,-173.73,0.0,0.0,0.0
13:17:17.8055,-8.22,0.13,-173.73,0.0,0.0,0.0
13:17:17.8715,-8.22,0.13,-173.73,0.0,0.0,0.0
13:17:17.9394,-8.22,0.13,-173.73,0.0,0.0,0.0
13:17:18.6289,-8.22,0.13,-173.73,0.0,0.0,0.0
13:17:18.7369,-8.22,0.13,-173.73,0.0,0.0,0.0
13:17:18.1405,-8.22,0.13,-173.73,0.0,0.0,0.0
13:17:18.2064,-8.22,0.14,-173.73,0.0,0.0,0.0
13:17:18.2734,-8.22,0.13,-173.73,0.0,0.0,0.0
13:17:18.3398,-8.22,0.13,-173.73,0.0,0.0,0.0
13:17:18.4068,-8.22,0.13,-173.73,0.0,0.0,0.0
13:17:18.4734,-8.22,0.13,-173.73,0.0,0.0,0.0
13:17:18.5401,-8.22,0.13,-173.73,0.0,0.0,0.0
13:17:18.6066,-8.22,0.13,-173.73,0.0,0.0,0.0
13:17:18.6736,-8.22,0.13,-173.73,0.0,0.0,0.0
13:17:18.7404,-8.22,0.13,-173.73,0.0,0.0,0.0
13:17:18.8074,-8.22,0.13,-173.73,0.0,0.0,0.0
13:17:18.8746,-8.22,0.13,-173.73,0.0,0.0,0.0
13:17:18.9413,-8.22,0.13,-173.73,0.0,0.0,0.0
13:17:19.9478,-8.22,0.13,-173.73,0.0,0.0,0.0
13:17:19.9989,-8.22,0.13,-173.73,0.0,0.0,0.0
13:17:19.1716,-8.22,0.13,-173.73,0.0,0.0,0.0
13:17:19.2325,-8.22,0.13,-173.73,0.0,0.0,0.0
13:17:19.2890,-8.22,0.13,-173.73,0.0,0.0,0.0
13:17:19.3446,-8.22,0.13,-173.73,0.0,0.0,0.0
13:17:19.4096,-8.22,0.14,-173.73,0.0,0.0,0.0
13:17:19.4763,-8.22,0.13,-173.73,0.0,0.0,0.0
13:17:19.5426,-8.22,0.14,-173.73,0.0,0.0,0.0
13:17:19.6097,-8.21,0.14,-173.73,0.0,0.0,0.0
13:17:19.6771,-8.22,0.14,-173.73,0.0,0.0,0.0
13:17:19.7491,-8.22,0.14,-173.73,0.0,0.0,0.0
13:17:19.8111,-8.22,0.13,-173.73,0.0,0.0,0.0
13:17:19.8771,-8.22,0.13,-173.73,0.0,0.0,0.0
13:17:19.9433,-8.21,0.13,-173.73,0.0,0.0,0.0
13:17:20.1029,-8.21,0.14,-173.73,0.0,0.0,0.0
13:17:20.7760,-8.22,0.13,-173.73,0.0,0.0,0.0
13:17:20.1444,-8.21,0.13,-173.73,0.0,0.0,0.0
13:17:20.2130,-8.21,0.13,-173.73,0.0,0.0,0.0
13:17:20.2792,-8.21,0.13,-173.73,0.0,0.0,0.0
13:17:20.3451,-8.21,0.13,-173.73,0.0,0.0,0.0
13:17:20.4131,-8.21,0.13,-173.73,0.0,0.0,0.0
13:17:20.4795,-8.22,0.13,-173.73,0.0,0.0,0.0
13:17:20.5452,-8.21,0.14,-173.73,0.0,0.0,0.0
13:17:20.6132,-8.22,0.13,-173.73,0.0,0.0,0.0
13:17:20.6790,-8.22,0.13,-173.73,0.0,0.0,0.0
13:17:20.7462,-8.22,0.13,-173.73,0.0,0.0,0.0
13:17:20.8131,-8.22,0.13,-173.73,0.0,0.0,0.0
13:17:20.8794,-8.22,0.13,-173.73,0.0,0.0,0.0
13:17:20.9462,-8.22,0.13,-173.73,0.0,0.0,0.0
13:17:21.1323,-8.22,0.13,-173.73,0.0,0.0,0.0
13:17:21.8404,-8.22,0.13,-173.73,0.0,0.0,0.0
13:17:21.1478,-8.22,0.13,-173.73,0.0,0.0,0.0
13:17:21.2142,-8.22,0.13,-173.73,0.0,0.0,0.0
13:17:21.2811,-8.22,0.13,-173.73,0.0,0.0,0.0
13:17:21.3481,-8.22,0.13,-173.73,0.0,0.0,0.0
13:17:21.4159,-8.22,0.13,-173.73,0.0,0.0,0.0
13:17:21.4839,-8.22,0.13,-173.73,0.0,0.0,0.0
13:17:21.5482,-8.22,0.13,-173.73,0.0,0.0,0.0
13:17:21.6162,-8.22,0.13,-173.73,0.0,0.0,0.0
13:17:21.6821,-8.22,0.13,-173.73,0.0,0.0,0.0
13:17:21.7542,-8.23,0.13,-173.73,0.0,0.0,0.0
13:17:21.8182,-8.22,0.13,-173.73,0.0,0.0,0.0
13:17:21.8832,-8.23,0.12,-173.73,0.0,0.0,0.0
13:17:21.9506,-8.23,0.13,-173.73,0.0,0.0,0.0
13:17:22.1633,-8.23,0.13,-173.73,0.0,0.0,0.0
13:17:22.8510,-8.23,0.13,-173.73,0.0,0.0,0.0
13:17:22.1518,-8.23,0.13,-173.73,0.0,0.0,0.0
13:17:22.2198,-8.23,0.13,-173.73,0.0,0.0,0.0
13:17:22.2852,-8.23,0.13,-173.73,0.0,0.0,0.0
13:17:22.3523,-8.23,0.13,-173.73,0.0,0.0,0.0
13:17:22.4181,-8.23,0.13,-173.73,0.0,0.0,0.0
13:17:22.4855,-8.23,0.13,-173.73,0.0,0.0,0.0
13:17:22.5522,-8.23,0.13,-173.73,0.0,0.0,0.0
13:17:22.6193,-8.23,0.13,-173.73,0.0,0.0,0.0
13:17:22.6852,-8.23,0.12,-173.73,0.0,0.0,0.0
13:17:22.7526,-8.23,0.12,-173.73,0.0,0.0,0.0
13:17:22.8194,-8.23,0.12,-173.73,0.0,0.0,0.0
13:17:22.8902,-8.23,0.13,-173.73,0.0,0.0,0.0
13:17:22.9531,-8.23,0.13,-173.73,0.0,0.0,0.0
13:17:23.2009,-8.23,0.13,-173.73,0.0,0.0,0.0
13:17:23.8745,-8.23,0.13,-173.73,0.0,0.0,0.0
13:17:23.1542,-8.23,0.13,-173.73,0.0,0.0,0.0
13:17:23.2211,-8.23,0.13,-173.73,0.0,0.0,0.0
13:17:23.2881,-8.23,0.13,-173.73,0.0,0.0,0.0
13:17:23.3550,-8.23,0.13,-173.73,0.0,0.0,0.0
13:17:23.4216,-8.24,0.13,-173.73,0.0,0.0,0.0
13:17:23.4894,-8.24,0.12,-173.73,0.0,0.0,0.0
13:17:23.5550,-8.23,0.12,-173.73,0.0,0.0,0.0
13:17:23.6220,-8.24,0.12,-173.73,0.0,0.0,0.0
13:17:23.6885,-8.24,0.13,-173.73,0.0,0.0,0.0
13:17:23.7600,-8.24,0.13,-173.73,0.0,0.0,0.0
13:17:23.8233,-8.24,0.12,-173.73,0.0,0.0,0.0
13:17:23.8891,-8.23,0.13,-173.73,0.0,0.0,0.0
13:17:23.9561,-8.24,0.13,-173.73,0.0,0.0,0.0
13:17:24.2323,-8.24,0.12,-173.73,0.0,0.0,0.0
13:17:24.9027,-8.24,0.12,-173.73,0.0,0.0,0.0
13:17:24.1572,-8.24,0.12,-173.73,0.0,0.0,0.0
13:17:24.2620,-8.24,0.12,-173.73,0.0,0.0,0.0
13:17:24.2997,-8.24,0.12,-173.73,0.0,0.0,0.0
13:17:24.3830,-8.24,0.12,-173.73,0.0,0.0,0.0
13:17:24.4293,-8.24,0.12,-173.73,0.0,0.0,0.0
13:17:24.4910,-8.24,0.13,-173.73,0.0,0.0,0.0
13:17:24.5581,-8.24,0.13,-173.73,0.0,0.0,0.0
13:17:24.6242,-8.24,0.13,-173.73,0.0,0.0,0.0
13:17:24.6914,-8.24,0.13,-173.73,0.0,0.0,0.0
13:17:24.7583,-8.24,0.12,-173.73,0.0,0.0,0.0
13:17:24.8262,-8.24,0.12,-173.73,0.0,0.0,0.0
13:17:24.8921,-8.24,0.12,-173.73,0.0,0.0,0.0
13:17:24.9580,-8.24,0.13,-173.73,0.0,0.0,0.0
13:17:25.2622,-8.25,0.13,-173.73,0.0,0.0,0.0
13:17:25.9224,-8.24,0.13,-173.73,0.0,0.0,0.0
13:17:25.1602,-8.24,0.12,-173.73,0.0,0.0,0.0
13:17:25.2271,-8.24,0.13,-173.73,0.0,0.0,0.0
13:17:25.2942,-8.24,0.13,-173.73,0.0,0.0,0.0
13:17:25.3596,-8.24,0.13,-173.73,0.0,0.0,0.0
13:17:25.4274,-8.25,0.13,-173.73,0.0,0.0,0.0
13:17:25.4943,-8.24,0.13,-173.73,0.0,0.0,0.0
13:17:25.5605,-8.24,0.12,-173.73,0.0,0.0,0.0
13:17:25.6277,-8.24,0.12,-173.73,0.0,0.0,0.0
13:17:25.6946,-8.24,0.12,-173.73,0.0,0.0,0.0
13:17:25.7658,-8.24,0.13,-173.73,0.0,0.0,0.0
13:17:25.8287,-8.24,0.13,-173.73,0.0,0.0,0.0
13:17:25.8943,-8.24,0.13,-173.73,0.0,0.0,0.0
13:17:25.9623,-8.24,0.12,-173.73,0.0,0.0,0.0
13:17:26.2960,-8.24,0.12,-173.73,0.0,0.0,0.0
13:17:26.9632,-8.24,0.13,-173.73,0.0,0.0,0.0
13:17:26.1643,-8.24,0.12,-173.73,0.0,0.0,0.0
13:17:26.2305,-8.24,0.13,-173.73,0.0,0.0,0.0
13:17:26.2974,-8.24,0.12,-173.73,0.0,0.0,0.0
13:17:26.3674,-8.24,0.12,-173.73,0.0,0.0,0.0
13:17:26.4523,-8.24,0.13,-173.73,0.0,0.0,0.0
13:17:26.5006,-8.24,0.13,-173.73,0.0,0.0,0.0
13:17:26.5630,-8.24,0.12,-173.73,0.0,0.0,0.0
13:17:26.6302,-8.24,0.12,-173.73,0.0,0.0,0.0
13:17:26.6962,-8.24,0.12,-173.73,0.0,0.0,0.0
13:17:26.7632,-8.24,0.12,-173.73,0.0,0.0,0.0
13:17:26.8302,-8.24,0.12,-173.73,0.0,0.0,0.0
13:17:26.8982,-8.24,0.12,-173.73,0.0,0.0,0.0
13:17:26.9646,-8.24,0.12,-173.73,0.0,0.0,0.0
13:17:27.3164,-8.24,0.12,-173.73,0.0,0.0,0.0
13:17:27.9863,-8.24,0.12,-173.73,0.0,0.0,0.0
13:17:27.1654,-8.24,0.12,-173.73,0.0,0.0,0.0
13:17:27.2323,-8.24,0.12,-173.73,0.0,0.0,0.0
13:17:27.2985,-8.24,0.12,-173.73,0.0,0.0,0.0
13:17:27.3662,-8.24,0.12,-173.73,0.0,0.0,0.0
13:17:27.4333,-8.24,0.12,-173.73,0.0,0.0,0.0
13:17:27.4986,-8.24,0.12,-173.73,0.0,0.0,0.0
13:17:27.5652,-8.24,0.12,-173.73,0.0,0.0,0.0
13:17:27.6322,-8.24,0.12,-173.73,0.0,0.0,0.0
13:17:27.6992,-8.24,0.12,-173.73,0.0,0.0,0.0
13:17:27.7698,-8.24,0.11,-173.73,0.0,0.0,0.0
13:17:27.8332,-8.24,0.11,-173.73,0.0,0.0,0.0
13:17:27.8995,-8.24,0.11,-173.73,0.0,0.0,0.0
13:17:27.9662,-8.24,0.11,-173.73,0.0,0.0,0.0
13:17:28.3348,-8.24,0.11,-173.73,0.0,0.0,0.0
13:17:28.1011,-8.24,0.12,-173.73,0.0,0.0,0.0
13:17:28.1682,-8.24,0.11,-173.73,0.0,0.0,0.0
13:17:28.2351,-8.24,0.12,-173.73,0.0,0.0,0.0
13:17:28.3022,-8.24,0.11,-173.73,0.0,0.0,0.0
13:17:28.3690,-8.24,0.11,-173.73,0.0,0.0,0.0
13:17:28.4361,-8.24,0.11,-173.73,0.0,0.0,0.0
13:17:28.5025,-8.24,0.11,-173.73,0.0,0.0,0.0
13:17:28.5693,-8.24,0.12,-173.73,0.0,0.0,0.0
13:17:28.6362,-8.24,0.12,-173.73,0.0,0.0,0.0
13:17:28.7031,-8.24,0.12,-173.73,0.0,0.0,0.0
13:17:28.7695,-8.24,0.12,-173.73,0.0,0.0,0.0
13:17:28.8364,-8.24,0.12,-173.73,0.0,0.0,0.0
13:17:28.9024,-8.24,0.12,-173.73,0.0,0.0,0.0
13:17:28.9692,-8.24,0.12,-173.73,0.0,0.0,0.0
13:17:29.3628,-8.24,0.12,-173.73,0.0,0.0,0.0
13:17:29.1034,-8.24,0.12,-173.73,0.0,0.0,0.0
13:17:29.1703,-8.24,0.11,-173.73,0.0,0.0,0.0
13:17:29.2371,-8.24,0.12,-173.73,0.0,0.0,0.0
13:17:29.3042,-8.24,0.12,-173.73,0.0,0.0,0.0
13:17:29.3711,-8.24,0.12,-173.73,0.0,0.0,0.0
13:17:29.4379,-8.24,0.12,-173.73,0.0,0.0,0.0
13:17:29.5044,-8.24,0.11,-173.73,0.0,0.0,0.0
13:17:29.5992,-8.24,0.11,-173.73,0.0,0.0,0.0
13:17:29.6530,-8.24,0.11,-173.73,0.0,0.0,0.0
13:17:29.7292,-8.23,0.12,-173.73,0.0,0.0,0.0
13:17:29.7881,-8.23,0.11,-173.73,0.0,0.0,0.0
13:17:29.8468,-8.23,0.11,-173.73,0.0,0.0,0.0
13:17:29.9103,-8.23,0.12,-173.73,0.0,0.0,0.0
13:17:29.9743,-8.23,0.12,-173.73,0.0,0.0,0.0
13:17:30.4079,-8.23,0.12,-173.73,0.0,0.0,0.0
13:17:30.1068,-8.23,0.12,-173.73,0.0,0.0,0.0
13:17:30.1746,-8.23,0.12,-173.73,0.0,0.0,0.0
13:17:30.2401,-8.23,0.12,-173.73,0.0,0.0,0.0
13:17:30.3077,-8.23,0.12,-173.73,0.0,0.0,0.0
13:17:30.3743,-8.23,0.12,-173.73,0.0,0.0,0.0
13:17:30.4413,-8.23,0.12,-173.73,0.0,0.0,0.0
13:17:30.5083,-8.23,0.12,-173.73,0.0,0.0,0.0
13:17:30.5743,-8.23,0.12,-173.73,0.0,0.0,0.0
13:17:30.6413,-8.23,0.12,-173.73,0.0,0.0,0.0
13:17:30.7082,-8.23,0.12,-173.73,0.0,0.0,0.0
13:17:30.7746,-8.23,0.12,-173.73,0.0,0.0,0.0
13:17:30.8425,-8.23,0.12,-173.73,0.0,0.0,0.0
13:17:30.9094,-8.23,0.12,-173.73,0.0,0.0,0.0
13:17:30.9761,-8.23,0.11,-173.73,0.0,0.0,0.0
13:17:31.4375,-8.23,0.11,-173.73,0.0,0.0,0.0
13:17:31.1103,-8.23,0.11,-173.73,0.0,0.0,0.0
13:17:31.1776,-8.23,0.12,-173.73,0.0,0.0,0.0
13:17:31.2442,-8.23,0.11,-173.73,0.0,0.0,0.0
13:17:31.3105,-8.23,0.11,-173.73,0.0,0.0,0.0
13:17:31.3844,-8.24,0.11,-173.73,0.0,0.0,0.0
13:17:31.4443,-8.23,0.12,-173.73,0.0,0.0,0.0
13:17:31.5125,-8.23,0.12,-173.73,0.0,0.0,0.0
13:17:31.5783,-8.23,0.12,-173.73,0.0,0.0,0.0
13:17:31.6451,-8.23,0.12,-173.73,0.0,0.0,0.0
13:17:31.7121,-8.24,0.12,-173.73,0.0,0.0,0.0
13:17:31.7847,-8.24,0.12,-173.73,0.0,0.0,0.0
13:17:31.8502,-8.24,0.12,-173.73,0.0,0.0,0.0
13:17:31.9142,-8.24,0.12,-173.73,0.0,0.0,0.0
13:17:31.9793,-8.24,0.12,-173.73,0.0,0.0,0.0
13:17:32.4642,-8.24,0.12,-173.73,0.0,0.0,0.0
13:17:32.1135,-8.24,0.12,-173.73,0.0,0.0,0.0
13:17:32.1812,-8.24,0.12,-173.73,0.0,0.0,0.0
13:17:32.2472,-8.24,0.12,-173.73,0.0,0.0,0.0
13:17:32.3144,-8.24,0.12,-173.73,0.0,0.0,0.0
13:17:32.3812,-8.24,0.12,-173.73,0.0,0.0,0.0
13:17:32.4482,-8.24,0.12,-173.73,0.0,0.0,0.0
13:17:32.5144,-8.24,0.12,-173.73,0.0,0.0,0.0
13:17:32.5813,-8.24,0.12,-173.73,0.0,0.0,0.0
13:17:32.6477,-8.24,0.12,-173.73,0.0,0.0,0.0
13:17:32.7147,-8.24,0.12,-173.73,0.0,0.0,0.0
13:17:32.7815,-8.25,0.12,-173.73,0.0,0.0,0.0
13:17:32.8494,-8.24,0.12,-173.73,0.0,0.0,0.0
13:17:32.9153,-8.24,0.12,-173.73,0.0,0.0,0.0
13:17:32.9812,-8.25,0.12,-173.72,0.0,0.0,0.0
13:17:33.4933,-8.25,0.12,-173.72,0.0,0.0,0.0
13:17:33.1151,-8.25,0.12,-173.72,0.0,0.0,0.0
13:17:33.1833,-8.25,0.12,-173.72,0.0,0.0,0.0
13:17:33.2486,-8.25,0.12,-173.72,0.0,0.0,0.0
13:17:33.3170,-8.25,0.12,-173.72,0.0,0.0,0.0
13:17:33.3828,-8.25,0.11,-173.72,0.0,0.0,0.0
13:17:33.4496,-8.24,0.11,-173.72,0.0,0.0,0.0
13:17:33.5178,-8.25,0.12,-173.72,0.0,0.0,0.0
13:17:33.5843,-8.25,0.11,-173.72,0.0,0.0,0.0
13:17:33.6506,-8.24,0.11,-173.72,0.0,0.0,0.0
13:17:33.7174,-8.24,0.11,-173.72,0.0,0.0,0.0
13:17:33.7867,-8.25,0.11,-173.72,0.0,0.0,0.0
13:17:33.8513,-8.25,0.11,-173.72,0.0,0.0,0.0
13:17:33.9184,-8.24,0.11,-173.72,0.0,0.0,0.0
13:17:33.9851,-8.24,0.11,-173.72,0.0,0.0,0.0
13:17:34.5337,-8.24,0.11,-173.72,0.0,0.0,0.0
13:17:34.1201,-8.24,0.11,-173.72,0.0,0.0,0.0
13:17:34.1873,-8.24,0.11,-173.72,0.0,0.0,0.0
13:17:34.2525,-8.24,0.1,-173.72,0.0,0.0,0.0
13:17:34.3193,-8.24,0.11,-173.72,0.0,0.0,0.0
13:17:34.3866,-8.24,0.11,-173.72,0.0,0.0,0.0
13:17:34.4534,-8.24,0.11,-173.72,0.0,0.0,0.0
13:17:34.5188,-8.24,0.11,-173.72,0.0,0.0,0.0
13:17:34.5867,-8.24,0.11,-173.72,0.0,0.0,0.0
13:17:34.6536,-8.24,0.12,-173.72,0.0,0.0,0.0
13:17:34.7203,-8.24,0.11,-173.72,0.0,0.0,0.0
13:17:34.8261,-8.24,0.11,-173.72,0.0,0.0,0.0
13:17:34.8737,-8.24,0.11,-173.72,0.0,0.0,0.0
13:17:34.9470,-8.25,0.11,-173.72,0.0,0.0,0.0
13:17:34.9953,-8.25,0.11,-173.72,0.0,0.0,0.0
13:17:35.5358,-8.24,0.11,-173.72,0.0,0.0,0.0
13:17:35.1210,-8.25,0.11,-173.72,0.0,0.0,0.0
13:17:35.1875,-8.25,0.11,-173.72,0.0,0.0,0.0
13:17:35.2542,-8.25,0.11,-173.72,0.0,0.0,0.0
13:17:35.3229,-8.25,0.11,-173.72,0.0,0.0,0.0
13:17:35.3881,-8.25,0.1,-173.72,0.0,0.0,0.0
13:17:35.4552,-8.25,0.1,-173.72,0.0,0.0,0.0
13:17:35.5236,-8.25,0.1,-173.72,0.0,0.0,0.0
13:17:35.5883,-8.25,0.11,-173.72,0.0,0.0,0.0
13:17:35.6552,-8.25,0.11,-173.72,0.0,0.0,0.0
13:17:35.7231,-8.25,0.11,-173.72,0.0,0.0,0.0
13:17:35.7916,-8.25,0.11,-173.72,0.0,0.0,0.0
13:17:35.8555,-8.25,0.11,-173.72,0.0,0.0,0.0
13:17:35.9224,-8.25,0.11,-173.72,0.0,0.0,0.0
13:17:35.9903,-8.25,0.11,-173.72,0.0,0.0,0.0
13:17:36.5657,-8.25,0.1,-173.72,0.0,0.0,0.0
13:17:36.1245,-8.25,0.1,-173.72,0.0,0.0,0.0
13:17:36.1926,-8.25,0.11,-173.72,0.0,0.0,0.0
13:17:36.2570,-8.25,0.1,-173.72,0.0,0.0,0.0
13:17:36.3244,-8.25,0.1,-173.72,0.0,0.0,0.0
13:17:36.3949,-8.25,0.1,-173.72,0.0,0.0,0.0
13:17:36.4591,-8.25,0.11,-173.72,0.0,0.0,0.0
13:17:36.5244,-8.25,0.11,-173.72,0.0,0.0,0.0
13:17:36.5914,-8.25,0.11,-173.72,0.0,0.0,0.0
13:17:36.6583,-8.25,0.11,-173.72,0.0,0.0,0.0
13:17:36.7261,-8.24,0.11,-173.72,0.0,0.0,0.0
13:17:36.7918,-8.24,0.11,-173.72,0.0,0.0,0.0
13:17:36.8586,-8.24,0.11,-173.72,0.0,0.0,0.0
13:17:36.9254,-8.25,0.11,-173.72,0.0,0.0,0.0
13:17:36.9932,-8.25,0.11,-173.72,0.0,0.0,0.0
13:17:37.5932,-8.24,0.11,-173.72,0.0,0.0,0.0
13:17:37.1279,-8.25,0.11,-173.72,0.0,0.0,0.0
13:17:37.1934,-8.25,0.11,-173.72,0.0,0.0,0.0
13:17:37.2612,-8.25,0.11,-173.72,0.0,0.0,0.0
13:17:37.3275,-8.25,0.11,-173.72,0.0,0.0,0.0
13:17:37.3943,-8.25,0.11,-173.72,0.0,0.0,0.0
13:17:37.4622,-8.25,0.11,-173.72,0.0,0.0,0.0
13:17:37.5274,-8.25,0.11,-173.72,0.0,0.0,0.0
13:17:37.5953,-8.25,0.11,-173.72,0.0,0.0,0.0
13:17:37.6621,-8.25,0.11,-173.72,0.0,0.0,0.0
13:17:37.7277,-8.25,0.11,-173.72,0.0,0.0,0.0
13:17:37.8161,-8.25,0.11,-173.72,0.0,0.0,0.0
13:17:37.8662,-8.25,0.11,-173.72,0.0,0.0,0.0
13:17:37.9296,-8.25,0.1,-173.72,0.0,0.0,0.0
13:17:37.9952,-8.25,0.11,-173.72,0.0,0.0,0.0
13:17:38.6302,-8.25,0.11,-173.72,0.0,0.0,0.0
13:17:38.1303,-8.25,0.11,-173.72,0.0,0.0,0.0
13:17:38.1961,-8.25,0.11,-173.72,0.0,0.0,0.0
13:17:38.2629,-8.25,0.11,-173.72,0.0,0.0,0.0
13:17:38.3301,-8.25,0.11,-173.72,0.0,0.0,0.0
13:17:38.4147,-8.25,0.11,-173.72,0.0,0.0,0.0
13:17:38.4672,-8.25,0.11,-173.72,0.0,0.0,0.0
13:17:38.5304,-8.25,0.11,-173.72,0.0,0.0,0.0
13:17:38.5975,-8.25,0.11,-173.72,0.0,0.0,0.0
13:17:38.6645,-8.25,0.11,-173.72,0.0,0.0,0.0
13:17:38.7306,-8.25,0.11,-173.72,0.0,0.0,0.0
13:17:38.7973,-8.25,0.11,-173.72,0.0,0.0,0.0
13:17:38.8665,-8.25,0.11,-173.72,0.0,0.0,0.0
13:17:38.9321,-8.25,0.11,-173.72,0.0,0.0,0.0
13:17:38.9981,-8.25,0.11,-173.72,0.0,0.0,0.0
13:17:39.6520,-8.26,0.11,-173.72,0.0,0.0,0.0
13:17:39.1321,-8.26,0.11,-173.72,0.0,0.0,0.0
13:17:39.1994,-8.25,0.11,-173.72,0.0,0.0,0.0
13:17:39.2674,-8.25,0.11,-173.72,0.0,0.0,0.0
13:17:39.3336,-8.26,0.11,-173.72,0.0,0.0,0.0
13:17:39.4003,-8.26,0.11,-173.72,0.0,0.0,0.0
13:17:39.4673,-8.26,0.11,-173.72,0.0,0.0,0.0
13:17:39.5346,-8.26,0.11,-173.72,0.0,0.0,0.0
13:17:39.6014,-8.26,0.11,-173.72,0.0,0.0,0.0
13:17:39.6678,-8.26,0.11,-173.72,0.0,0.0,0.0
13:17:39.7351,-8.26,0.11,-173.72,0.0,0.0,0.0
13:17:39.8065,-8.26,0.11,-173.72,0.0,0.0,0.0
13:17:39.8685,-8.26,0.11,-173.72,0.0,0.0,0.0
13:17:39.9358,-8.26,0.11,-173.72,0.0,0.0,0.0
13:17:40.2647,-8.25,0.11,-173.72,0.0,0.0,0.0
13:17:40.6959,-8.25,0.11,-173.72,0.0,0.0,0.0
13:17:40.1367,-8.25,0.11,-173.72,0.0,0.0,0.0
13:17:40.2356,-8.25,0.12,-173.72,0.0,0.0,0.0
13:17:40.2965,-8.26,0.12,-173.72,0.0,0.0,0.0
13:17:40.3641,-8.26,0.12,-173.72,0.0,0.0,0.0
13:17:40.4097,-8.26,0.12,-173.72,0.0,0.0,0.0
13:17:40.4711,-8.26,0.12,-173.72,0.0,0.0,0.0
13:17:40.5372,-8.26,0.11,-173.72,0.0,0.0,0.0
13:17:40.6048,-8.26,0.11,-173.72,0.0,0.0,0.0
13:17:40.6718,-8.26,0.11,-173.72,0.0,0.0,0.0
13:17:40.7374,-8.26,0.11,-173.72,0.0,0.0,0.0
13:17:40.8047,-8.26,0.11,-173.72,0.0,0.0,0.0
13:17:40.8726,-8.26,0.11,-173.72,0.0,0.0,0.0
13:17:40.9386,-8.26,0.11,-173.72,0.0,0.0,0.0
13:17:41.5437,-8.26,0.11,-173.72,0.0,0.0,0.0
13:17:41.7167,-8.26,0.11,-173.72,0.0,0.0,0.0
13:17:41.1396,-8.26,0.11,-173.72,0.0,0.0,0.0
13:17:41.2070,-8.26,0.11,-173.72,0.0,0.0,0.0
13:17:41.2732,-8.27,0.11,-173.72,0.0,0.0,0.0
13:17:41.3396,-8.27,0.11,-173.72,0.0,0.0,0.0
13:17:41.4079,-8.27,0.11,-173.72,0.0,0.0,0.0
13:17:41.4732,-8.27,0.11,-173.72,0.0,0.0,0.0
13:17:41.5415,-8.27,0.11,-173.72,0.0,0.0,0.0
13:17:41.6072,-8.27,0.11,-173.72,0.0,0.0,0.0
13:17:41.6739,-8.27,0.11,-173.72,0.0,0.0,0.0
13:17:41.7413,-8.27,0.11,-173.72,0.0,0.0,0.0
13:17:41.8151,-8.27,0.11,-173.72,0.0,0.0,0.0
13:17:41.8755,-8.26,0.11,-173.72,0.0,0.0,0.0
13:17:41.9415,-8.26,0.11,-173.72,0.0,0.0,0.0
13:17:42.8425,-8.26,0.11,-173.72,0.0,0.0,0.0
13:17:42.7549,-8.26,0.11,-173.72,0.0,0.0,0.0
13:17:42.1424,-8.27,0.11,-173.72,0.0,0.0,0.0
13:17:42.2098,-8.26,0.1,-173.72,0.0,0.0,0.0
13:17:42.2758,-8.26,0.1,-173.72,0.0,0.0,0.0
13:17:42.3424,-8.26,0.1,-173.72,0.0,0.0,0.0
13:17:42.4148,-8.26,0.1,-173.72,0.0,0.0,0.0
13:17:42.4764,-8.26,0.1,-173.72,0.0,0.0,0.0
13:17:42.5424,-8.26,0.1,-173.72,0.0,0.0,0.0
13:17:42.6097,-8.26,0.1,-173.72,0.0,0.0,0.0
13:17:42.6758,-8.26,0.1,-173.72,0.0,0.0,0.0
13:17:42.7435,-8.26,0.1,-173.72,0.0,0.0,0.0
13:17:42.8122,-8.26,0.1,-173.72,0.0,0.0,0.0
13:17:42.8774,-8.26,0.1,-173.72,0.0,0.0,0.0
13:17:42.9429,-8.26,0.1,-173.72,0.0,0.0,0.0
13:17:43.1040,-8.26,0.1,-173.72,0.0,0.0,0.0
13:17:43.7715,-8.26,0.1,-173.72,0.0,0.0,0.0
13:17:43.1455,-8.26,0.1,-173.72,0.0,0.0,0.0
13:17:43.2114,-8.26,0.1,-173.72,0.0,0.0,0.0
13:17:43.2779,-8.26,0.1,-173.72,0.0,0.0,0.0
13:17:43.3464,-8.25,0.11,-173.72,0.0,0.0,0.0
13:17:43.4115,-8.25,0.1,-173.72,0.0,0.0,0.0
13:17:43.4785,-8.25,0.1,-173.72,0.0,0.0,0.0
13:17:43.5464,-8.26,0.1,-173.72,0.0,0.0,0.0
13:17:43.6139,-8.25,0.11,-173.72,0.0,0.0,0.0
13:17:43.6801,-8.25,0.1,-173.72,0.0,0.0,0.0
13:17:43.7465,-8.25,0.1,-173.72,0.0,0.0,0.0
13:17:43.8218,-8.25,0.1,-173.72,0.0,0.0,0.0
13:17:43.8808,-8.25,0.1,-173.72,0.0,0.0,0.0
13:17:43.9472,-8.25,0.1,-173.72,0.0,0.0,0.0
13:17:44.1386,-8.24,0.1,-173.72,0.0,0.0,0.0
13:17:44.8145,-8.25,0.1,-173.72,0.0,0.0,0.0
13:17:44.1483,-8.24,0.09,-173.72,0.0,0.0,0.0
13:17:44.2165,-8.24,0.09,-173.72,0.0,0.0,0.0
13:17:44.2838,-8.24,0.09,-173.72,0.0,0.0,0.0
13:17:44.3488,-8.24,0.09,-173.72,0.0,0.0,0.0
13:17:44.4155,-8.24,0.09,-173.72,0.0,0.0,0.0
13:17:44.4823,-8.24,0.09,-173.72,0.0,0.0,0.0
13:17:44.5487,-8.24,0.09,-173.72,0.0,0.0,0.0
13:17:44.6151,-8.24,0.09,-173.72,0.0,0.0,0.0
13:17:44.6825,-8.24,0.09,-173.72,0.0,0.0,0.0
13:17:44.7493,-8.25,0.09,-173.72,0.0,0.0,0.0
13:17:44.8176,-8.25,0.08,-173.7,0.0,0.0,0.0
13:17:44.8844,-8.24,0.08,-173.71,0.0,0.0,0.0
13:17:44.9501,-8.25,0.08,-173.7,0.11,-0.02,0.58
13:17:45.1568,-8.24,0.08,-173.67,0.0,0.0,0.0
13:17:45.8439,-8.24,0.08,-173.65,0.0,0.0,0.0
13:17:45.1497,-8.25,0.08,-173.65,0.0,0.0,0.0
13:17:45.2178,-8.24,0.08,-173.65,0.0,0.0,0.0
13:17:45.2839,-8.25,0.08,-173.65,0.0,0.0,0.0
13:17:45.3516,-8.25,0.09,-173.65,0.0,0.0,0.0
13:17:45.4191,-8.24,0.08,-173.65,0.0,0.0,0.0
13:17:45.4857,-8.25,0.09,-173.65,0.0,0.0,0.0
13:17:45.5916,-8.25,0.09,-173.65,0.0,0.0,0.0
13:17:45.6530,-8.24,0.08,-173.65,0.0,0.0,0.0
13:17:45.7145,-8.25,0.09,-173.65,0.0,0.0,0.0
13:17:45.7623,-8.24,0.09,-173.65,0.0,0.0,0.0
13:17:45.8336,-8.25,0.09,-173.65,0.0,0.0,0.0
13:17:45.8886,-8.24,0.09,-173.65,0.0,0.0,0.0
13:17:45.9512,-8.25,0.09,-173.65,0.0,0.0,0.0
13:17:46.1940,-8.25,0.09,-173.65,0.0,0.0,0.0
13:17:46.8702,-8.24,0.1,-173.65,0.0,0.0,0.0
13:17:46.1531,-8.25,0.1,-173.65,0.0,0.0,0.0
13:17:46.2191,-8.25,0.1,-173.65,0.0,0.0,0.0
13:17:46.2871,-8.25,0.09,-173.65,0.0,0.0,0.0
13:17:46.3531,-8.25,0.1,-173.65,0.0,0.0,0.0
13:17:46.4211,-8.25,0.1,-173.65,0.0,0.0,0.0
13:17:46.4877,-8.25,0.1,-173.65,0.0,0.0,0.0
13:17:46.5693,-8.25,0.1,-173.65,0.0,0.0,0.0
13:17:46.6221,-8.25,0.1,-173.65,0.0,0.0,0.0
13:17:46.6866,-8.25,0.1,-173.65,0.0,0.0,0.0
13:17:46.7545,-8.25,0.1,-173.65,0.0,0.0,0.0
13:17:46.8202,-8.25,0.1,-173.65,0.0,0.0,0.0
13:17:46.8883,-8.25,0.1,-173.65,0.0,0.0,0.0
13:17:46.9542,-8.25,0.1,-173.65,0.0,0.0,0.0
13:17:47.2120,-8.25,0.1,-173.65,0.0,0.0,0.0
13:17:47.8839,-8.25,0.1,-173.65,0.0,0.0,0.0
13:17:47.1561,-8.26,0.1,-173.65,0.0,0.0,0.0
13:17:47.2231,-8.25,0.1,-173.65,0.0,0.0,0.0
13:17:47.2893,-8.25,0.1,-173.65,0.0,0.0,0.0
13:17:47.3559,-8.25,0.1,-173.65,0.0,0.0,0.0
13:17:47.4225,-8.25,0.09,-173.65,0.0,0.0,0.0
13:17:47.4894,-8.24,0.09,-173.65,0.0,0.0,0.0
13:17:47.5562,-8.25,0.09,-173.65,0.0,0.0,0.0
13:17:47.6236,-8.25,0.09,-173.65,0.0,0.0,0.0
13:17:47.6904,-8.25,0.09,-173.65,0.0,0.0,0.0
13:17:47.7565,-8.25,0.1,-173.65,0.0,0.0,0.0
13:17:47.8286,-8.25,0.1,-173.65,0.0,0.0,0.0
13:17:47.8910,-8.25,0.1,-173.65,0.0,0.0,0.0
13:17:47.9581,-8.25,0.1,-173.65,0.0,0.0,0.0
13:17:48.2397,-8.25,0.1,-173.65,0.0,0.0,0.0
13:17:48.9219,-8.25,0.1,-173.65,0.0,0.0,0.0
13:17:48.1581,-8.25,0.1,-173.65,0.0,0.0,0.0
13:17:48.2260,-8.25,0.1,-173.65,0.0,0.0,0.0
13:17:48.2919,-8.25,0.1,-173.65,0.0,0.0,0.0
13:17:48.3585,-8.25,0.1,-173.65,0.0,0.0,0.0
13:17:48.4253,-8.25,0.1,-173.65,0.0,0.0,0.0
13:17:48.4959,-8.25,0.1,-173.65,0.0,0.0,0.0
13:17:48.5595,-8.25,0.1,-173.65,0.0,0.0,0.0
13:17:48.6317,-8.25,0.1,-173.65,0.0,0.0,0.0
13:17:48.6922,-8.25,0.1,-173.65,0.0,0.0,0.0
13:17:48.7592,-8.25,0.1,-173.65,0.0,0.0,0.0
13:17:48.8261,-8.25,0.1,-173.65,0.0,0.0,0.0
13:17:48.8930,-8.25,0.1,-173.65,0.0,0.0,0.0
13:17:48.9611,-8.25,0.1,-173.65,0.0,0.0,0.0
13:17:49.2650,-8.25,0.1,-173.65,0.0,0.0,0.0
13:17:49.9517,-8.25,0.1,-173.65,0.0,0.0,0.0
13:17:49.1620,-8.25,0.1,-173.65,0.0,0.0,0.0
13:17:49.2354,-8.25,0.09,-173.65,0.0,0.0,0.0
13:17:49.2958,-8.25,0.1,-173.65,0.0,0.0,0.0
13:17:49.3615,-8.25,0.1,-173.65,0.0,0.0,0.0
13:17:49.4301,-8.24,0.1,-173.65,0.0,0.0,0.0
13:17:49.4952,-8.25,0.1,-173.65,0.0,0.0,0.0
13:17:49.5630,-8.24,0.1,-173.65,0.0,0.0,0.0
13:17:49.6294,-8.25,0.1,-173.65,0.0,0.0,0.0
13:17:49.6951,-8.25,0.1,-173.65,0.0,0.0,0.0
13:17:49.7632,-8.24,0.1,-173.65,0.0,0.0,0.0
13:17:49.8336,-8.25,0.1,-173.65,0.0,0.0,0.0
13:17:49.8960,-8.25,0.1,-173.65,0.0,0.0,0.0
13:17:49.9641,-8.25,0.11,-173.65,0.0,0.0,0.0
13:17:50.2964,-8.25,0.11,-173.65,0.0,0.0,0.0
13:17:50.9705,-8.25,0.1,-173.65,0.0,0.0,0.0
13:17:50.1651,-8.25,0.1,-173.65,0.0,0.0,0.0
13:17:50.2305,-8.25,0.11,-173.65,0.0,0.0,0.0
13:17:50.2989,-8.25,0.11,-173.65,0.0,0.0,0.0
13:17:50.3653,-8.25,0.1,-173.65,0.0,0.0,0.0
13:17:50.4322,-8.25,0.1,-173.65,0.0,0.0,0.0
13:17:50.4981,-8.25,0.11,-173.65,0.0,0.0,0.0
13:17:50.5656,-8.24,0.11,-173.65,0.0,0.0,0.0
13:17:50.6313,-8.25,0.11,-173.65,0.0,0.0,0.0
13:17:50.7271,-8.25,0.11,-173.65,0.0,0.0,0.0
13:17:50.7974,-8.25,0.11,-173.65,0.0,0.0,0.0
13:17:50.8468,-8.25,0.1,-173.65,0.0,0.0,0.0
13:17:50.9063,-8.25,0.1,-173.65,0.0,0.0,0.0
13:17:50.9662,-8.25,0.1,-173.65,0.0,0.0,0.0
13:17:51.3323,-8.25,0.1,-173.65,0.0,0.0,0.0
13:17:51.1009,-8.25,0.1,-173.65,0.0,0.0,0.0
13:17:51.1664,-8.25,0.1,-173.65,0.0,0.0,0.0
13:17:51.2357,-8.25,0.1,-173.65,0.0,0.0,0.0
13:17:51.3006,-8.25,0.1,-173.65,0.0,0.0,0.0
13:17:51.3742,-8.25,0.11,-173.65,0.0,0.0,0.0
13:17:51.4397,-8.25,0.11,-173.65,0.0,0.0,0.0
13:17:51.5027,-8.25,0.11,-173.65,0.0,0.0,0.0
13:17:51.5688,-8.25,0.11,-173.65,0.0,0.0,0.0
13:17:51.6346,-8.25,0.1,-173.65,0.0,0.0,0.0
13:17:51.7012,-8.25,0.1,-173.65,0.0,0.0,0.0
13:17:51.7681,-8.25,0.1,-173.65,0.0,0.0,0.0
13:17:51.8388,-8.25,0.1,-173.65,0.0,0.0,0.0
13:17:51.9015,-8.25,0.1,-173.65,0.0,0.0,0.0
13:17:51.9685,-8.25,0.09,-173.65,0.0,0.0,0.0
13:17:52.3568,-8.25,0.1,-173.65,0.0,0.0,0.0
13:17:52.1039,-8.25,0.1,-173.65,0.0,0.0,0.0
13:17:52.1695,-8.25,0.1,-173.65,0.0,0.0,0.0
13:17:52.2363,-8.25,0.1,-173.65,0.0,0.0,0.0
13:17:52.3033,-8.25,0.1,-173.65,0.0,0.0,0.0
13:17:52.3702,-8.25,0.1,-173.65,0.0,0.0,0.0
13:17:52.4371,-8.25,0.1,-173.65,0.0,0.0,0.0
13:17:52.5040,-8.25,0.1,-173.65,0.0,0.0,0.0
13:17:52.5713,-8.25,0.1,-173.65,0.0,0.0,0.0
13:17:52.6372,-8.25,0.1,-173.65,0.0,0.0,0.0
13:17:52.7042,-8.25,0.1,-173.65,0.0,0.0,0.0
13:17:52.7711,-8.25,0.1,-173.65,0.0,0.0,0.0
13:17:52.8374,-8.25,0.1,-173.65,0.0,0.0,0.0
13:17:52.9057,-8.25,0.1,-173.65,0.0,0.0,0.0
13:17:52.9723,-8.25,0.1,-173.65,0.0,0.0,0.0
13:17:53.3940,-8.25,0.1,-173.65,0.0,0.0,0.0
13:17:53.1065,-8.25,0.1,-173.65,0.0,0.0,0.0
13:17:53.1735,-8.25,0.1,-173.65,0.0,0.0,0.0
13:17:53.2412,-8.25,0.1,-173.65,0.0,0.0,0.0
13:17:53.3073,-8.25,0.1,-173.65,0.0,0.0,0.0
13:17:53.3741,-8.25,0.1,-173.65,0.0,0.0,0.0
13:17:53.4411,-8.25,0.1,-173.65,0.0,0.0,0.0
13:17:53.5079,-8.25,0.11,-173.64,0.0,0.0,0.0
13:17:53.5742,-8.25,0.11,-173.64,0.0,0.0,0.0
13:17:53.6412,-8.25,0.1,-173.64,0.0,0.0,0.0
13:17:53.7081,-8.25,0.1,-173.64,0.0,0.0,0.0
13:17:53.7751,-8.25,0.11,-173.64,0.0,0.0,0.0
13:17:53.8452,-8.26,0.11,-173.64,0.0,0.0,0.0
13:17:53.9089,-8.25,0.11,-173.64,0.0,0.0,0.0
13:17:53.9744,-8.25,0.11,-173.64,0.0,0.0,0.0
13:17:54.4232,-8.25,0.11,-173.64,0.0,0.0,0.0
13:17:54.1096,-8.25,0.11,-173.64,0.0,0.0,0.0
13:17:54.1763,-8.25,0.1,-173.64,0.0,0.0,0.0
13:17:54.2431,-8.25,0.1,-173.64,0.0,0.0,0.0
13:17:54.3092,-8.25,0.1,-173.64,0.0,0.0,0.0
13:17:54.3760,-8.25,0.1,-173.64,0.0,0.0,0.0
13:17:54.4431,-8.25,0.1,-173.64,0.0,0.0,0.0
13:17:54.5099,-8.25,0.1,-173.64,0.0,0.0,0.0
13:17:54.5761,-8.25,0.1,-173.64,0.0,0.0,0.0
13:17:54.6430,-8.25,0.1,-173.64,0.0,0.0,0.0
13:17:54.7101,-8.25,0.1,-173.64,0.0,0.0,0.0
13:17:54.7764,-8.26,0.1,-173.64,0.0,0.0,0.0
13:17:54.8434,-8.26,0.1,-173.64,0.0,0.0,0.0
13:17:54.9102,-8.26,0.1,-173.64,0.0,0.0,0.0
13:17:54.9780,-8.26,0.1,-173.64,0.0,0.0,0.0
13:17:55.4518,-8.26,0.1,-173.64,0.0,0.0,0.0
13:17:55.1121,-8.26,0.1,-173.64,0.0,0.0,0.0
13:17:55.1782,-8.26,0.1,-173.64,0.0,0.0,0.0
13:17:55.2451,-8.27,0.1,-173.64,0.0,0.0,0.0
13:17:55.3121,-8.26,0.1,-173.64,0.0,0.0,0.0
13:17:55.3790,-8.26,0.1,-173.64,0.0,0.0,0.0
13:17:55.4456,-8.26,0.1,-173.64,0.0,0.0,0.0
13:17:55.5125,-8.26,0.1,-173.64,0.0,0.0,0.0
13:17:55.5791,-8.26,0.1,-173.64,0.0,0.0,0.0
13:17:55.6462,-8.26,0.1,-173.64,0.0,0.0,0.0
13:17:55.7129,-8.26,0.1,-173.64,0.0,0.0,0.0
13:17:55.7799,-8.26,0.09,-173.64,0.0,0.0,0.0
13:17:55.8524,-8.26,0.09,-173.64,0.0,0.0,0.0
13:17:55.9132,-8.26,0.09,-173.64,0.0,0.0,0.0
13:17:56.1444,-8.26,0.09,-173.64,0.0,0.0,0.0
13:17:56.5944,-8.26,0.09,-173.64,0.0,0.0,0.0
13:17:56.1359,-8.26,0.09,-173.64,0.0,0.0,0.0
13:17:56.1845,-8.26,0.09,-173.64,0.0,0.0,0.0
13:17:56.2485,-8.26,0.09,-173.64,0.0,0.0,0.0
13:17:56.3162,-8.26,0.09,-173.64,0.0,0.0,0.0
13:17:56.3869,-8.26,0.09,-173.64,0.0,0.0,0.0
13:17:56.4520,-8.26,0.09,-173.64,0.0,0.0,0.0
13:17:56.5165,-8.26,0.1,-173.64,0.0,0.0,0.0
13:17:56.5829,-8.26,0.1,-173.64,0.0,0.0,0.0
13:17:56.6496,-8.26,0.1,-173.64,0.0,0.0,0.0
13:17:56.7162,-8.26,0.1,-173.64,0.0,0.0,0.0
13:17:56.7822,-8.26,0.1,-173.64,0.0,0.0,0.0
13:17:56.8503,-8.26,0.1,-173.64,0.0,0.0,0.0
13:17:56.9171,-8.26,0.1,-173.64,0.0,0.0,0.0
13:17:56.9840,-8.26,0.1,-173.64,0.0,0.0,0.0
13:17:57.5001,-8.26,0.1,-173.64,0.0,0.0,0.0
13:17:57.1180,-8.26,0.1,-173.64,0.0,0.0,0.0
13:17:57.1838,-8.26,0.1,-173.64,0.0,0.0,0.0
13:17:57.2515,-8.26,0.1,-173.64,0.0,0.0,0.0
13:17:57.3180,-8.26,0.1,-173.64,0.0,0.0,0.0
13:17:57.3844,-8.26,0.11,-173.64,0.0,0.0,0.0
13:17:57.4524,-8.26,0.11,-173.64,0.0,0.0,0.0
13:17:57.5185,-8.26,0.1,-173.64,0.0,0.0,0.0
13:17:57.5858,-8.27,0.1,-173.64,0.0,0.0,0.0
13:17:57.6524,-8.27,0.1,-173.64,0.0,0.0,0.0
13:17:57.7180,-8.27,0.1,-173.64,0.0,0.0,0.0
13:17:57.7850,-8.27,0.1,-173.64,0.0,0.0,0.0
13:17:57.8548,-8.27,0.1,-173.64,0.0,0.0,0.0
13:17:57.9190,-8.27,0.1,-173.64,0.0,0.0,0.0
13:17:57.9855,-8.27,0.1,-173.64,0.0,0.0,0.0
13:17:58.5407,-8.27,0.1,-173.64,0.0,0.0,0.0
13:17:58.1200,-8.27,0.1,-173.64,0.0,0.0,0.0
13:17:58.1869,-8.27,0.1,-173.64,0.0,0.0,0.0
13:17:58.2535,-8.27,0.1,-173.64,0.0,0.0,0.0
13:17:58.3208,-8.27,0.1,-173.64,0.0,0.0,0.0
13:17:58.3881,-8.27,0.1,-173.64,0.0,0.0,0.0
13:17:58.4540,-8.27,0.1,-173.64,0.0,0.0,0.0
13:17:58.5210,-8.27,0.1,-173.64,0.0,0.0,0.0
13:17:58.5883,-8.27,0.1,-173.64,0.0,0.0,0.0
13:17:58.6542,-8.27,0.1,-173.64,0.0,0.0,0.0
13:17:58.7211,-8.27,0.1,-173.64,0.0,0.0,0.0
13:17:58.7890,-8.27,0.1,-173.64,0.0,0.0,0.0
13:17:58.8559,-8.27,0.1,-173.64,0.0,0.0,0.0
13:17:58.9250,-8.27,0.1,-173.64,0.0,0.0,0.0
13:17:58.9895,-8.27,0.1,-173.64,0.0,0.0,0.0
13:17:59.5698,-8.27,0.1,-173.64,0.0,0.0,0.0
13:17:59.1239,-8.26,0.1,-173.64,0.0,0.0,0.0
13:17:59.1905,-8.26,0.1,-173.64,0.0,0.0,0.0
13:17:59.2570,-8.27,0.09,-173.64,0.0,0.0,0.0
13:17:59.3249,-8.26,0.09,-173.64,0.0,0.0,0.0
13:17:59.3911,-8.26,0.09,-173.64,0.0,0.0,0.0
13:17:59.4580,-8.26,0.09,-173.64,0.0,0.0,0.0
13:17:59.5251,-8.26,0.09,-173.64,0.0,0.0,0.0
13:17:59.5924,-8.26,0.09,-173.64,0.0,0.0,0.0
13:17:59.6581,-8.26,0.09,-173.64,0.0,0.0,0.0
13:17:59.7250,-8.26,0.09,-173.64,0.0,0.0,0.0
13:17:59.7920,-8.26,0.09,-173.64,0.0,0.0,0.0
13:17:59.8618,-8.26,0.09,-173.64,0.0,0.0,0.0
13:17:59.9276,-8.26,0.09,-173.64,0.0,0.0,0.0
13:17:59.9932,-8.26,0.09,-173.64,0.0,0.0,0.0
13:18:00.5973,-8.26,0.09,-173.64,0.0,0.0,0.0
13:18:00.1272,-8.26,0.09,-173.64,0.0,0.0,0.0
13:18:00.1940,-8.26,0.09,-173.64,0.0,0.0,0.0
13:18:00.2605,-8.26,0.09,-173.64,0.0,0.0,0.0
13:18:00.3275,-8.26,0.09,-173.64,0.0,0.0,0.0
13:18:00.3942,-8.26,0.09,-173.64,0.0,0.0,0.0
13:18:00.4611,-8.26,0.09,-173.64,0.0,0.0,0.0
13:18:00.5280,-8.26,0.09,-173.64,0.0,0.0,0.0
13:18:00.5943,-8.25,0.09,-173.64,0.0,0.0,0.0
13:18:00.6611,-8.25,0.09,-173.64,0.0,0.0,0.0
13:18:00.7280,-8.25,0.09,-173.64,0.0,0.0,0.0
13:18:00.7951,-8.25,0.09,-173.64,0.0,0.0,0.0
13:18:00.8615,-8.25,0.09,-173.64,0.0,0.0,0.0
13:18:00.9296,-8.25,0.09,-173.64,0.0,0.0,0.0
13:18:00.9944,-8.26,0.09,-173.64,0.0,0.0,0.0
13:18:01.6146,-8.26,0.09,-173.64,0.0,0.0,0.0
13:18:01.1285,-8.26,0.09,-173.64,0.0,0.0,0.0
13:18:01.1956,-8.25,0.09,-173.64,0.0,0.0,0.0
13:18:01.3089,-8.25,0.09,-173.64,0.0,0.0,0.0
13:18:01.3551,-8.25,0.09,-173.64,0.0,0.0,0.0
13:18:01.4365,-8.25,0.09,-173.64,0.0,0.0,0.0
13:18:01.4783,-8.25,0.09,-173.64,0.0,0.0,0.0
13:18:01.5334,-8.25,0.09,-173.64,0.0,0.0,0.0
13:18:01.5964,-8.25,0.09,-173.64,0.0,0.0,0.0
13:18:01.6665,-8.25,0.09,-173.64,0.0,0.0,0.0
13:18:01.7309,-8.24,0.09,-173.64,0.0,0.0,0.0
13:18:01.7979,-8.24,0.09,-173.64,0.0,0.0,0.0
13:18:01.8679,-8.25,0.09,-173.64,0.0,0.0,0.0
13:18:01.9313,-8.25,0.09,-173.64,0.0,0.0,0.0
13:18:01.9972,-8.25,0.09,-173.64,0.0,0.0,0.0
13:18:02.6547,-8.25,0.09,-173.64,0.0,0.0,0.0
13:18:02.1313,-8.25,0.09,-173.64,0.0,0.0,0.0
13:18:02.2004,-8.25,0.08,-173.64,0.0,0.0,0.0
13:18:02.2674,-8.25,0.09,-173.64,0.0,0.0,0.0
13:18:02.3323,-8.25,0.09,-173.64,0.0,0.0,0.0
13:18:02.3991,-8.25,0.09,-173.64,0.0,0.0,0.0
13:18:02.4661,-8.25,0.09,-173.64,0.0,0.0,0.0
13:18:02.5322,-8.25,0.09,-173.64,0.0,0.0,0.0
13:18:02.5990,-8.25,0.09,-173.64,0.0,0.0,0.0
13:18:02.6668,-8.25,0.08,-173.64,0.0,0.0,0.0
13:18:02.7323,-8.25,0.08,-173.64,0.0,0.0,0.0
13:18:02.7996,-8.25,0.09,-173.64,0.0,0.0,0.0
13:18:02.8671,-8.25,0.09,-173.64,0.0,0.0,0.0
13:18:02.9355,-8.25,0.09,-173.64,0.0,0.0,0.0
13:18:03.1171,-8.25,0.09,-173.64,0.0,0.0,0.0
13:18:03.6825,-8.25,0.09,-173.64,0.0,0.0,0.0
13:18:03.1352,-8.25,0.09,-173.64,0.0,0.0,0.0
13:18:03.2023,-8.25,0.09,-173.64,0.0,0.0,0.0
13:18:03.2688,-8.25,0.09,-173.64,0.0,0.0,0.0
13:18:03.3361,-8.25,0.09,-173.64,0.0,0.0,0.0
13:18:03.4031,-8.25,0.09,-173.64,0.0,0.0,0.0
13:18:03.4700,-8.25,0.09,-173.64,0.0,0.0,0.0
13:18:03.5363,-8.25,0.08,-173.64,0.0,0.0,0.0
13:18:03.6022,-8.25,0.08,-173.64,0.0,0.0,0.0
13:18:03.6688,-8.25,0.08,-173.64,0.0,0.0,0.0
13:18:03.7353,-8.25,0.08,-173.64,0.0,0.0,0.0
13:18:03.8022,-8.25,0.08,-173.64,0.0,0.0,0.0
13:18:03.8726,-8.24,0.08,-173.64,0.0,0.0,0.0
13:18:03.9360,-8.25,0.08,-173.64,0.0,0.0,0.0
13:18:04.6162,-8.25,0.09,-173.64,0.0,0.0,0.0
13:18:04.7095,-8.25,0.09,-173.64,0.0,0.0,0.0
13:18:04.1383,-8.25,0.09,-173.64,0.0,0.0,0.0
13:18:04.2077,-8.25,0.08,-173.64,0.0,0.0,0.0
13:18:04.2769,-8.25,0.08,-173.64,0.0,0.0,0.0
13:18:04.3386,-8.25,0.09,-173.64,0.0,0.0,0.0
13:18:04.4051,-8.25,0.09,-173.64,0.0,0.0,0.0
13:18:04.4713,-8.25,0.09,-173.64,0.0,0.0,0.0
13:18:04.5381,-8.25,0.09,-173.64,0.0,0.0,0.0
13:18:04.6054,-8.25,0.09,-173.64,0.0,0.0,0.0
13:18:04.6724,-8.25,0.1,-173.64,0.0,0.0,0.0
13:18:04.7385,-8.25,0.1,-173.64,0.0,0.0,0.0
13:18:04.8061,-8.25,0.1,-173.64,0.0,0.0,0.0
13:18:04.8721,-8.25,0.1,-173.64,0.0,0.0,0.0
13:18:04.9392,-8.25,0.1,-173.64,0.0,0.0,0.0
13:18:05.6018,-8.25,0.1,-173.64,0.0,0.0,0.0
13:18:05.7415,-8.25,0.09,-173.64,0.0,0.0,0.0
13:18:05.1411,-8.25,0.09,-173.64,0.0,0.0,0.0
13:18:05.2084,-8.25,0.1,-173.64,0.0,0.0,0.0
13:18:05.2749,-8.25,0.1,-173.64,0.0,0.0,0.0
13:18:05.3420,-8.25,0.1,-173.64,0.0,0.0,0.0
13:18:05.4078,-8.25,0.09,-173.64,0.0,0.0,0.0
13:18:05.4757,-8.25,0.09,-173.64,0.0,0.0,0.0
13:18:05.5410,-8.25,0.09,-173.64,0.0,0.0,0.0
13:18:05.6084,-8.25,0.1,-173.64,0.0,0.0,0.0
13:18:05.6754,-8.25,0.09,-173.64,0.0,0.0,0.0
13:18:05.7421,-8.25,0.09,-173.64,0.0,0.0,0.0
13:18:05.8119,-8.25,0.09,-173.64,0.0,0.0,0.0
13:18:05.8806,-8.25,0.1,-173.64,0.0,0.0,0.0
13:18:05.9431,-8.25,0.09,-173.64,0.0,0.0,0.0
13:18:06.1015,-8.25,0.09,-173.64,0.0,0.0,0.0
13:18:06.7600,-8.25,0.09,-173.64,0.0,0.0,0.0
13:18:06.1440,-8.24,0.09,-173.64,0.0,0.0,0.0
13:18:06.2110,-8.25,0.1,-173.64,0.0,0.0,0.0
13:18:06.2774,-8.25,0.09,-173.64,0.0,0.0,0.0
13:18:06.3440,-8.25,0.09,-173.64,0.0,0.0,0.0
13:18:06.4121,-8.25,0.09,-173.64,0.0,0.0,0.0
13:18:06.4790,-8.25,0.1,-173.64,0.0,0.0,0.0
13:18:06.5443,-8.25,0.09,-173.64,0.0,0.0,0.0
13:18:06.6558,-8.25,0.09,-173.64,0.0,0.0,0.0
13:18:06.7056,-8.25,0.09,-173.64,0.0,0.0,0.0
13:18:06.7834,-8.25,0.1,-173.64,0.0,0.0,0.0
13:18:06.8198,-8.26,0.09,-173.64,0.0,0.0,0.0
13:18:06.8784,-8.26,0.1,-173.64,0.0,0.0,0.0
13:18:06.9452,-8.26,0.1,-173.64,0.0,0.0,0.0
13:18:07.1340,-8.26,0.1,-173.64,0.0,0.0,0.0
13:18:07.8005,-8.26,0.1,-173.64,0.0,0.0,0.0
13:18:07.1462,-8.25,0.1,-173.64,0.0,0.0,0.0
13:18:07.2143,-8.25,0.1,-173.64,0.0,0.0,0.0
13:18:07.2795,-8.25,0.1,-173.64,0.0,0.0,0.0
13:18:07.3482,-8.25,0.1,-173.64,0.0,0.0,0.0
13:18:07.4164,-8.25,0.1,-173.64,0.0,0.0,0.0
13:18:07.4800,-8.25,0.1,-173.64,0.0,0.0,0.0
13:18:07.5478,-8.26,0.1,-173.64,0.0,0.0,0.0
13:18:07.6146,-8.26,0.1,-173.64,0.0,0.0,0.0
13:18:07.6802,-8.26,0.1,-173.64,0.0,0.0,0.0
13:18:07.7470,-8.26,0.1,-173.64,0.0,0.0,0.0
13:18:07.8140,-8.26,0.1,-173.64,0.0,0.0,0.0
13:18:07.8835,-8.26,0.1,-173.64,0.0,0.0,0.0
13:18:07.9475,-8.26,0.1,-173.64,0.0,0.0,0.0
13:18:08.1414,-8.26,0.1,-173.64,0.0,0.0,0.0
13:18:08.8190,-8.26,0.1,-173.64,0.0,0.0,0.0
13:18:08.1484,-8.26,0.09,-173.64,0.0,0.0,0.0
13:18:08.2156,-8.26,0.09,-173.64,0.0,0.0,0.0
13:18:08.2831,-8.26,0.09,-173.64,0.0,0.0,0.0
13:18:08.3501,-8.26,0.1,-173.64,0.0,0.0,0.0
13:18:08.4161,-8.26,0.1,-173.64,0.0,0.0,0.0
13:18:08.4841,-8.26,0.1,-173.64,0.0,0.0,0.0
13:18:08.5494,-8.26,0.1,-173.64,0.0,0.0,0.0
13:18:08.6161,-8.26,0.1,-173.64,0.0,0.0,0.0
13:18:08.6844,-8.26,0.1,-173.64,0.0,0.0,0.0
13:18:08.7499,-8.26,0.1,-173.64,0.0,0.0,0.0
13:18:08.8165,-8.27,0.1,-173.64,0.0,0.0,0.0
13:18:08.8845,-8.26,0.1,-173.64,0.0,0.0,0.0
13:18:08.9514,-8.27,0.1,-173.64,0.0,0.0,0.0
13:18:09.1722,-8.27,0.1,-173.64,0.0,0.0,0.0
13:18:09.8444,-8.27,0.1,-173.64,0.0,0.0,0.0
13:18:09.1550,-8.27,0.1,-173.64,0.0,0.0,0.0
13:18:09.2184,-8.27,0.1,-173.64,0.0,0.0,0.0
13:18:09.2852,-8.27,0.1,-173.64,0.0,0.0,0.0
13:18:09.3523,-8.27,0.1,-173.64,0.0,0.0,0.0
13:18:09.4190,-8.26,0.1,-173.64,0.0,0.0,0.0
13:18:09.4862,-8.26,0.1,-173.64,0.0,0.0,0.0
13:18:09.5521,-8.26,0.1,-173.64,0.0,0.0,0.0
13:18:09.6193,-8.26,0.1,-173.64,0.0,0.0,0.0
13:18:09.6860,-8.26,0.1,-173.64,0.0,0.0,0.0
13:18:09.7526,-8.26,0.1,-173.64,0.0,0.0,0.0
13:18:09.8200,-8.25,0.1,-173.64,0.0,0.0,0.0
13:18:09.8907,-8.25,0.1,-173.64,0.0,0.0,0.0
13:18:09.9560,-8.25,0.1,-173.64,0.0,0.0,0.0
13:18:10.2025,-8.25,0.09,-173.64,0.0,0.0,0.0
13:18:10.8743,-8.25,0.09,-173.64,0.0,0.0,0.0
13:18:10.1542,-8.25,0.09,-173.64,0.0,0.0,0.0
13:18:10.2212,-8.25,0.09,-173.64,0.0,0.0,0.0
13:18:10.2892,-8.25,0.09,-173.64,0.0,0.0,0.0
13:18:10.3561,-8.25,0.09,-173.64,0.0,0.0,0.0
13:18:10.4220,-8.25,0.09,-173.64,0.0,0.0,0.0
13:18:10.4888,-8.24,0.09,-173.64,0.0,0.0,0.0
13:18:10.5551,-8.24,0.09,-173.64,0.0,0.0,0.0
13:18:10.6231,-8.25,0.09,-173.64,0.0,0.0,0.0
13:18:10.6901,-8.25,0.09,-173.64,0.0,0.0,0.0
13:18:10.7554,-8.25,0.09,-173.64,0.0,0.0,0.0
13:18:10.8225,-8.25,0.09,-173.64,0.0,0.0,0.0
13:18:10.8892,-8.25,0.09,-173.64,0.0,0.0,0.0
13:18:10.9573,-8.25,0.09,-173.64,0.0,0.0,0.0
13:18:11.2320,-8.25,0.09,-173.64,0.0,0.0,0.0
13:18:11.9148,-8.25,0.09,-173.64,0.0,0.0,0.0
13:18:11.1584,-8.25,0.09,-173.64,0.0,0.0,0.0
13:18:11.2241,-8.25,0.08,-173.64,0.0,0.0,0.0
13:18:11.2923,-8.25,0.08,-173.64,0.0,0.0,0.0
13:18:11.3582,-8.25,0.09,-173.64,0.0,0.0,0.0
13:18:11.4435,-8.25,0.08,-173.64,0.0,0.0,0.0
13:18:11.4943,-8.25,0.09,-173.64,0.0,0.0,0.0
13:18:11.5594,-8.25,0.09,-173.64,0.0,0.0,0.0
13:18:11.6261,-8.25,0.09,-173.64,0.0,0.0,0.0
13:18:11.6922,-8.25,0.09,-173.64,0.0,0.0,0.0
13:18:11.7587,-8.25,0.09,-173.64,0.0,0.0,0.0
13:18:11.8262,-8.25,0.09,-173.64,0.0,0.0,0.0
13:18:11.8958,-8.25,0.09,-173.64,0.0,0.0,0.0
13:18:11.9895,-8.25,0.09,-173.64,0.0,0.0,0.0
13:18:12.5705,-8.25,0.09,-173.64,0.0,0.0,0.0
13:18:12.1079,-8.25,0.09,-173.64,0.0,0.0,0.0
13:18:12.1681,-8.25,0.09,-173.64,0.0,0.0,0.0
13:18:12.2270,-8.26,0.09,-173.64,0.0,0.0,0.0
13:18:12.2956,-8.26,0.09,-173.64,0.0,0.0,0.0
13:18:12.3604,-8.25,0.09,-173.64,0.0,0.0,0.0
13:18:12.4290,-8.25,0.09,-173.64,0.0,0.0,0.0
13:18:12.4956,-8.26,0.09,-173.64,0.0,0.0,0.0
13:18:12.5612,-8.25,0.09,-173.64,0.0,0.0,0.0
13:18:12.6274,-8.25,0.1,-173.64,0.0,0.0,0.0
13:18:12.6947,-8.25,0.09,-173.64,0.0,0.0,0.0
13:18:12.7614,-8.26,0.09,-173.64,0.0,0.0,0.0
13:18:12.8283,-8.26,0.09,-173.64,0.0,0.0,0.0
13:18:12.8953,-8.26,0.09,-173.64,0.0,0.0,0.0
13:18:12.9622,-8.26,0.09,-173.64,0.0,0.0,0.0
13:18:13.2874,-8.26,0.09,-173.64,0.0,0.0,0.0
13:18:13.1001,-8.26,0.09,-173.64,0.0,0.0,0.0
13:18:13.1633,-8.26,0.09,-173.64,0.0,0.0,0.0
13:18:13.2311,-8.26,0.09,-173.64,0.0,0.0,0.0
13:18:13.3000,-8.26,0.09,-173.64,0.0,0.0,0.0
13:18:13.3640,-8.26,0.09,-173.64,0.0,0.0,0.0
13:18:13.4307,-8.26,0.09,-173.64,0.0,0.0,0.0
13:18:13.4985,-8.26,0.09,-173.64,0.0,0.0,0.0
13:18:13.5643,-8.27,0.09,-173.64,0.0,0.0,0.0
13:18:13.6317,-8.26,0.09,-173.64,0.0,0.0,0.0
13:18:13.6974,-8.26,0.09,-173.64,0.0,0.0,0.0
13:18:13.7686,-8.26,0.09,-173.64,0.0,0.0,0.0
13:18:13.8312,-8.26,0.09,-173.64,0.0,0.0,0.0
13:18:13.9018,-8.26,0.09,-173.64,0.0,0.0,0.0
13:18:13.9653,-8.26,0.09,-173.64,0.0,0.0,0.0
13:18:14.3177,-8.26,0.09,-173.64,0.0,0.0,0.0
13:18:14.9920,-8.26,0.09,-173.64,0.0,0.0,0.0
13:18:14.1661,-8.26,0.09,-173.64,0.0,0.0,0.0
13:18:14.2346,-8.26,0.09,-173.64,0.0,0.0,0.0
13:18:14.3003,-8.26,0.09,-173.64,0.0,0.0,0.0
13:18:14.3680,-8.26,0.09,-173.64,0.0,0.0,0.0
13:18:14.4353,-8.26,0.09,-173.64,0.0,0.0,0.0
13:18:14.5025,-8.26,0.09,-173.64,0.0,0.0,0.0
13:18:14.5676,-8.26,0.09,-173.64,0.0,0.0,0.0
13:18:14.6343,-8.26,0.09,-173.64,0.0,0.0,0.0
13:18:14.7013,-8.26,0.08,-173.64,0.0,0.0,0.0
13:18:14.7684,-8.26,0.09,-173.64,0.0,0.0,0.0
13:18:14.8352,-8.26,0.09,-173.64,0.0,0.0,0.0
13:18:14.9021,-8.26,0.09,-173.64,0.0,0.0,0.0
13:18:14.9701,-8.26,0.09,-173.64,0.0,0.0,0.0
13:18:15.3566,-8.26,0.08,-173.64,0.0,0.0,0.0
13:18:15.1032,-8.26,0.09,-173.64,0.0,0.0,0.0
13:18:15.1701,-8.26,0.09,-173.64,0.0,0.0,0.0
13:18:15.2366,-8.26,0.09,-173.64,0.0,0.0,0.0
13:18:15.3041,-8.26,0.09,-173.64,0.0,0.0,0.0
13:18:15.3718,-8.26,0.09,-173.64,0.0,0.0,0.0
13:18:15.4379,-8.26,0.09,-173.64,0.0,0.0,0.0
13:18:15.5047,-8.26,0.09,-173.64,0.0,0.0,0.0
13:18:15.5705,-8.26,0.08,-173.64,0.0,0.0,0.0
13:18:15.6372,-8.27,0.09,-173.64,0.0,0.0,0.0
13:18:15.7043,-8.27,0.09,-173.64,0.0,0.0,0.0
13:18:15.7712,-8.27,0.08,-173.64,0.0,0.0,0.0
13:18:15.8381,-8.27,0.08,-173.64,0.0,0.0,0.0
13:18:15.9087,-8.27,0.08,-173.64,0.0,0.0,0.0
13:18:15.9716,-8.27,0.08,-173.64,0.0,0.0,0.0
13:18:16.3878,-8.27,0.08,-173.64,0.0,0.0,0.0
13:18:16.1061,-8.27,0.08,-173.64,0.0,0.0,0.0
13:18:16.1731,-8.26,0.08,-173.64,0.0,0.0,0.0
13:18:16.2396,-8.26,0.08,-173.64,0.0,0.0,0.0
13:18:16.3082,-8.26,0.08,-173.64,0.0,0.0,0.0
13:18:16.3818,-8.26,0.08,-173.64,0.0,0.0,0.0
13:18:16.4471,-8.26,0.07,-173.64,0.0,0.0,0.0
13:18:16.5196,-8.26,0.08,-173.64,0.0,0.0,0.0
13:18:16.5792,-8.26,0.07,-173.64,0.0,0.0,0.0
13:18:16.6413,-8.26,0.07,-173.64,0.0,0.0,0.0
13:18:16.7080,-8.26,0.07,-173.64,0.0,0.0,0.0
13:18:16.7744,-8.26,0.08,-173.64,0.0,0.0,0.0
13:18:16.8409,-8.26,0.07,-173.64,0.0,0.0,0.0
13:18:16.9076,-8.26,0.07,-173.64,0.0,0.0,0.0
13:18:17.1532,-8.26,0.07,-173.64,0.0,0.0,0.0
13:18:17.5403,-8.26,0.08,-173.64,0.0,0.0,0.0
13:18:17.1239,-8.26,0.07,-173.64,0.0,0.0,0.0
13:18:17.1834,-8.26,0.07,-173.64,0.0,0.0,0.0
13:18:17.2416,-8.26,0.07,-173.64,0.0,0.0,0.0
13:18:17.3093,-8.26,0.07,-173.64,0.0,0.0,0.0
13:18:17.3752,-8.26,0.08,-173.64,0.0,0.0,0.0
13:18:17.4421,-8.26,0.08,-173.64,0.0,0.0,0.0
13:18:17.5119,-8.26,0.08,-173.64,0.0,0.0,0.0
13:18:17.5760,-8.26,0.08,-173.64,0.0,0.0,0.0
13:18:17.6421,-8.26,0.08,-173.64,0.0,0.0,0.0
13:18:17.7099,-8.26,0.08,-173.64,0.0,0.0,0.0
13:18:17.7756,-8.26,0.07,-173.64,0.0,0.0,0.0
13:18:17.8425,-8.26,0.07,-173.64,0.0,0.0,0.0
13:18:17.9128,-8.26,0.08,-173.64,0.0,0.0,0.0
13:18:17.9773,-8.26,0.07,-173.64,0.0,0.0,0.0
13:18:18.4860,-8.26,0.07,-173.64,0.0,0.0,0.0
13:18:18.1111,-8.26,0.07,-173.64,0.0,0.0,0.0
13:18:18.1799,-8.26,0.07,-173.64,0.0,0.0,0.0
13:18:18.2441,-8.26,0.08,-173.64,0.0,0.0,0.0
13:18:18.3160,-8.26,0.07,-173.64,0.0,0.0,0.0
13:18:18.3799,-8.26,0.07,-173.64,0.0,0.0,0.0
13:18:18.4484,-8.26,0.07,-173.64,0.0,0.0,0.0
13:18:18.5165,-8.26,0.07,-173.64,0.0,0.0,0.0
13:18:18.5852,-8.26,0.07,-173.64,0.0,0.0,0.0
13:18:18.6450,-8.26,0.07,-173.64,0.0,0.0,0.0
13:18:18.7125,-8.26,0.07,-173.64,0.0,0.0,0.0
13:18:18.7784,-8.26,0.07,-173.64,0.0,0.0,0.0
13:18:18.8454,-8.26,0.08,-173.64,0.0,0.0,0.0
13:18:18.9132,-8.26,0.08,-173.64,0.0,0.0,0.0
13:18:18.9801,-8.26,0.08,-173.64,0.0,0.0,0.0
13:18:19.5205,-8.26,0.08,-173.64,0.0,0.0,0.0
13:18:19.1141,-8.26,0.08,-173.64,0.0,0.0,0.0
13:18:19.1840,-8.26,0.08,-173.64,0.0,0.0,0.0
13:18:19.2482,-8.26,0.08,-173.64,0.0,0.0,0.0
13:18:19.3159,-8.26,0.08,-173.64,0.0,0.0,0.0
13:18:19.3840,-8.26,0.08,-173.64,0.0,0.0,0.0
13:18:19.4526,-8.26,0.08,-173.64,0.0,0.0,0.0
13:18:19.5158,-8.26,0.08,-173.64,0.0,0.0,0.0
13:18:19.5821,-8.26,0.08,-173.64,0.0,0.0,0.0
13:18:19.6485,-8.26,0.08,-173.64,0.0,0.0,0.0
13:18:19.7144,-8.26,0.08,-173.64,0.0,0.0,0.0
13:18:19.7824,-8.26,0.07,-173.64,0.0,0.0,0.0
13:18:19.8483,-8.26,0.07,-173.64,0.0,0.0,0.0
13:18:19.9195,-8.26,0.07,-173.64,0.0,0.0,0.0
13:18:19.9821,-8.26,0.08,-173.64,0.0,0.0,0.0
13:18:20.5192,-8.26,0.08,-173.64,0.0,0.0,0.0
13:18:20.1199,-8.26,0.08,-173.64,0.0,0.0,0.0
13:18:20.1870,-8.26,0.08,-173.64,0.0,0.0,0.0
13:18:20.2519,-8.26,0.08,-173.64,0.0,0.0,0.0
13:18:20.3200,-8.27,0.08,-173.64,0.0,0.0,0.0
13:18:20.3880,-8.27,0.08,-173.64,0.0,0.0,0.0
13:18:20.4556,-8.27,0.08,-173.64,0.0,0.0,0.0
13:18:20.5175,-8.27,0.07,-173.64,0.0,0.0,0.0
13:18:20.5847,-8.27,0.07,-173.64,0.0,0.0,0.0
13:18:20.6515,-8.26,0.07,-173.64,0.0,0.0,0.0
13:18:20.7173,-8.26,0.07,-173.64,0.0,0.0,0.0
13:18:20.7854,-8.26,0.07,-173.64,0.0,0.0,0.0
13:18:20.8512,-8.27,0.07,-173.64,0.0,0.0,0.0
13:18:20.9182,-8.27,0.07,-173.64,0.0,0.0,0.0
13:18:20.9870,-8.26,0.07,-173.64,0.0,0.0,0.0
13:18:21.5592,-8.26,0.07,-173.64,0.0,0.0,0.0
13:18:21.1195,-8.26,0.07,-173.64,0.0,0.0,0.0
13:18:21.1872,-8.26,0.07,-173.64,0.0,0.0,0.0
13:18:21.2531,-8.26,0.07,-173.64,0.0,0.0,0.0
13:18:21.3240,-8.26,0.07,-173.64,0.0,0.0,0.0
13:18:21.3934,-8.26,0.07,-173.64,0.0,0.0,0.0
13:18:21.4563,-8.26,0.07,-173.64,0.0,0.0,0.0
13:18:21.5239,-8.26,0.07,-173.64,0.0,0.0,0.0
13:18:21.6213,-8.26,0.07,-173.64,0.0,0.0,0.0
13:18:21.6678,-8.26,0.07,-173.64,0.0,0.0,0.0
13:18:21.7482,-8.26,0.07,-173.64,0.0,0.0,0.0
13:18:21.7917,-8.26,0.08,-173.64,0.0,0.0,0.0
13:18:21.8552,-8.26,0.08,-173.64,0.0,0.0,0.0
13:18:21.9239,-8.26,0.08,-173.64,0.0,0.0,0.0
13:18:21.9885,-8.26,0.07,-173.64,0.0,0.0,0.0
13:18:22.5517,-8.26,0.08,-173.64,0.0,0.0,0.0
13:18:22.1231,-8.26,0.08,-173.64,0.0,0.0,0.0
13:18:22.1919,-8.26,0.08,-173.64,0.0,0.0,0.0
13:18:22.2555,-8.26,0.07,-173.64,0.0,0.0,0.0
13:18:22.3240,-8.26,0.07,-173.64,0.0,0.0,0.0
13:18:22.3892,-8.26,0.08,-173.64,0.0,0.0,0.0
13:18:22.4562,-8.26,0.08,-173.64,0.0,0.0,0.0
13:18:22.5238,-8.26,0.08,-173.64,0.0,0.0,0.0
13:18:22.5893,-8.26,0.07,-173.64,0.0,0.0,0.0
13:18:22.6573,-8.26,0.07,-173.64,0.0,0.0,0.0
13:18:22.7231,-8.26,0.08,-173.64,0.0,0.0,0.0
13:18:22.7900,-8.26,0.08,-173.64,0.0,0.0,0.0
13:18:22.8570,-8.26,0.08,-173.64,0.0,0.0,0.0
13:18:22.9236,-8.26,0.08,-173.64,0.0,0.0,0.0
13:18:22.9905,-8.26,0.08,-173.64,0.0,0.0,0.0
13:18:23.5992,-8.26,0.08,-173.64,0.0,0.0,0.0
13:18:23.1279,-8.25,0.08,-173.64,0.0,0.0,0.0
13:18:23.1978,-8.26,0.08,-173.64,0.0,0.0,0.0
13:18:23.2585,-8.26,0.08,-173.64,0.0,0.0,0.0
13:18:23.3279,-8.26,0.08,-173.64,0.0,0.0,0.0
13:18:23.3959,-8.26,0.08,-173.64,0.0,0.0,0.0
13:18:23.4651,-8.26,0.08,-173.64,0.0,0.0,0.0
13:18:23.5279,-8.26,0.07,-173.64,0.0,0.0,0.0
13:18:23.5932,-8.26,0.07,-173.64,0.0,0.0,0.0
13:18:23.6593,-8.26,0.08,-173.64,0.0,0.0,0.0
13:18:23.7261,-8.26,0.07,-173.64,0.0,0.0,0.0
13:18:23.7929,-8.26,0.07,-173.64,0.0,0.0,0.0
13:18:23.8600,-8.26,0.07,-173.64,0.0,0.0,0.0
13:18:23.9291,-8.26,0.07,-173.64,0.0,0.0,0.0
13:18:23.9933,-8.26,0.07,-173.64,0.0,0.0,0.0
13:18:24.6706,-8.26,0.07,-173.64,0.0,0.0,0.0
13:18:24.1329,-8.26,0.07,-173.64,0.0,0.0,0.0
13:18:24.1959,-8.25,0.07,-173.64,0.0,0.0,0.0
13:18:24.2611,-8.25,0.07,-173.64,0.0,0.0,0.0
13:18:24.3351,-8.25,0.07,-173.64,0.0,0.0,0.0
13:18:24.3961,-8.25,0.07,-173.64,0.0,0.0,0.0
13:18:24.4641,-8.25,0.07,-173.64,0.0,0.0,0.0
13:18:24.5319,-8.25,0.07,-173.64,0.0,0.0,0.0
13:18:24.5955,-8.25,0.07,-173.64,0.0,0.0,0.0
13:18:24.6632,-8.25,0.07,-173.64,0.0,0.0,0.0
13:18:24.7291,-8.25,0.07,-173.64,0.0,0.0,0.0
13:18:24.7969,-8.25,0.07,-173.64,0.0,0.0,0.0
13:18:24.8625,-8.25,0.07,-173.64,0.0,0.0,0.0
13:18:24.9304,-8.25,0.07,-173.64,0.0,0.0,0.0
13:18:24.9962,-8.25,0.07,-173.64,0.0,0.0,0.0
13:18:25.6868,-8.25,0.07,-173.64,0.0,0.0,0.0
13:18:25.1319,-8.25,0.06,-173.64,0.0,0.0,0.0
13:18:25.1999,-8.25,0.06,-173.64,0.0,0.0,0.0
13:18:25.2687,-8.25,0.06,-173.64,0.0,0.0,0.0
13:18:25.3319,-8.25,0.06,-173.64,0.0,0.0,0.0
13:18:25.3999,-8.25,0.07,-173.64,0.0,0.0,0.0
13:18:25.4688,-8.25,0.07,-173.64,0.0,0.0,0.0
13:18:25.5359,-8.25,0.06,-173.64,0.0,0.0,0.0
13:18:25.5992,-8.25,0.07,-173.64,0.0,0.0,0.0
13:18:25.6651,-8.25,0.07,-173.64,0.0,0.0,0.0
13:18:25.7316,-8.25,0.07,-173.64,0.0,0.0,0.0
13:18:25.7985,-8.25,0.07,-173.64,0.0,0.0,0.0
13:18:25.8653,-8.25,0.07,-173.64,0.0,0.0,0.0
13:18:25.9359,-8.25,0.07,-173.64,0.0,0.0,0.0
13:18:26.1527,-8.25,0.07,-173.64,0.0,0.0,0.0
13:18:26.6663,-8.25,0.07,-173.64,0.0,0.0,0.0
13:18:26.1359,-8.25,0.07,-173.64,0.0,0.0,0.0
13:18:26.2007,-8.25,0.06,-173.64,0.0,0.0,0.0
13:18:26.2680,-8.26,0.06,-173.64,0.0,0.0,0.0
13:18:26.3359,-8.26,0.07,-173.64,0.0,0.0,0.0
13:18:26.4454,-8.26,0.07,-173.64,0.0,0.0,0.0
13:18:26.5038,-8.26,0.06,-173.64,0.0,0.0,0.0
13:18:26.5689,-8.26,0.06,-173.64,0.0,0.0,0.0
13:18:26.6134,-8.26,0.06,-173.64,0.0,0.0,0.0
13:18:26.6701,-8.26,0.07,-173.64,0.0,0.0,0.0
13:18:26.7351,-8.26,0.07,-173.64,0.0,0.0,0.0
13:18:26.8018,-8.26,0.07,-173.64,0.0,0.0,0.0
13:18:26.8692,-8.26,0.07,-173.64,0.0,0.0,0.0
13:18:26.9356,-8.26,0.07,-173.64,0.0,0.0,0.0
13:18:27.2471,-8.26,0.07,-173.64,0.0,0.0,0.0
13:18:27.6947,-8.26,0.07,-173.64,0.0,0.0,0.0
13:18:27.1372,-8.26,0.07,-173.64,0.0,0.0,0.0
13:18:27.2035,-8.26,0.07,-173.64,0.0,0.0,0.0
13:18:27.2701,-8.26,0.07,-173.64,0.0,0.0,0.0
13:18:27.3376,-8.26,0.07,-173.64,0.0,0.0,0.0
13:18:27.4046,-8.26,0.07,-173.64,0.0,0.0,0.0
13:18:27.4767,-8.26,0.07,-173.64,0.0,0.0,0.0
13:18:27.5395,-8.26,0.06,-173.64,0.0,0.0,0.0
13:18:27.6055,-8.26,0.06,-173.64,0.0,0.0,0.0
13:18:27.6722,-8.26,0.06,-173.64,0.0,0.0,0.0
13:18:27.7377,-8.25,0.06,-173.64,0.0,0.0,0.0
13:18:27.8059,-8.25,0.06,-173.64,0.0,0.0,0.0
13:18:27.8725,-8.25,0.07,-173.64,0.0,0.0,0.0
13:18:27.9445,-8.26,0.06,-173.64,0.0,0.0,0.0
13:18:28.6819,-8.25,0.06,-173.64,0.0,0.0,0.0
13:18:28.7266,-8.25,0.06,-173.64,0.0,0.0,0.0
13:18:28.1405,-8.25,0.06,-173.64,0.0,0.0,0.0
13:18:28.2074,-8.26,0.06,-173.64,0.0,0.0,0.0
13:18:28.2731,-8.26,0.06,-173.64,0.0,0.0,0.0
13:18:28.3416,-8.26,0.07,-173.64,0.0,0.0,0.0
13:18:28.4072,-8.26,0.07,-173.64,0.0,0.0,0.0
13:18:28.4740,-8.26,0.07,-173.64,0.0,0.0,0.0
13:18:28.5405,-8.26,0.07,-173.64,0.0,0.0,0.0
13:18:28.6076,-8.26,0.07,-173.64,0.0,0.0,0.0
13:18:28.6742,-8.26,0.07,-173.64,0.0,0.0,0.0
13:18:28.7411,-8.26,0.07,-173.64,0.0,0.0,0.0
13:18:28.8076,-8.26,0.07,-173.64,0.0,0.0,0.0
13:18:28.8744,-8.26,0.07,-173.64,0.0,0.0,0.0
13:18:28.9412,-8.26,0.07,-173.64,0.0,0.0,0.0
13:18:29.9236,-8.26,0.07,-173.64,0.0,0.0,0.0
13:18:29.7719,-8.26,0.07,-173.64,0.0,0.0,0.0
13:18:29.1424,-8.26,0.07,-173.64,0.0,0.0,0.0
13:18:29.2094,-8.26,0.07,-173.64,0.0,0.0,0.0
13:18:29.2771,-8.26,0.07,-173.64,0.0,0.0,0.0
13:18:29.3436,-8.26,0.06,-173.64,0.0,0.0,0.0
13:18:29.4102,-8.26,0.07,-173.64,0.0,0.0,0.0
13:18:29.4780,-8.26,0.07,-173.64,0.0,0.0,0.0
13:18:29.5436,-8.26,0.06,-173.64,0.0,0.0,0.0
13:18:29.6098,-8.26,0.06,-173.64,0.0,0.0,0.0
13:18:29.6763,-8.26,0.06,-173.64,0.0,0.0,0.0
13:18:29.7446,-8.26,0.06,-173.64,0.0,0.0,0.0
13:18:29.8122,-8.26,0.07,-173.64,0.0,0.0,0.0
13:18:29.8783,-8.26,0.07,-173.64,0.0,0.0,0.0
13:18:29.9503,-8.26,0.07,-173.64,0.0,0.0,0.0
13:18:30.1319,-8.26,0.07,-173.64,0.0,0.0,0.0
13:18:30.8020,-8.26,0.07,-173.64,0.0,0.0,0.0
13:18:30.1459,-8.26,0.07,-173.64,0.0,0.0,0.0
13:18:30.2128,-8.26,0.07,-173.64,0.0,0.0,0.0
13:18:30.2799,-8.27,0.07,-173.64,0.0,0.0,0.0
13:18:30.3470,-8.26,0.06,-173.64,0.0,0.0,0.0
13:18:30.4135,-8.26,0.06,-173.64,0.0,0.0,0.0
13:18:30.4804,-8.26,0.06,-173.64,0.0,0.0,0.0
13:18:30.5470,-8.26,0.06,-173.64,0.0,0.0,0.0
13:18:30.6134,-8.26,0.06,-173.64,0.0,0.0,0.0
13:18:30.6802,-8.26,0.06,-173.64,0.0,0.0,0.0
13:18:30.7472,-8.26,0.06,-173.64,0.0,0.0,0.0
13:18:30.8144,-8.26,0.06,-173.64,0.0,0.0,0.0
13:18:30.8809,-8.26,0.06,-173.64,0.0,0.0,0.0
13:18:30.9484,-8.26,0.05,-173.64,0.0,0.0,0.0
13:18:31.1643,-8.27,0.05,-173.64,0.0,0.0,0.0
13:18:31.8442,-8.27,0.05,-173.64,0.0,0.0,0.0
13:18:31.1498,-8.27,0.05,-173.64,0.0,0.0,0.0
13:18:31.2247,-8.27,0.05,-173.64,0.0,0.0,0.0
13:18:31.2836,-8.26,0.05,-173.64,0.0,0.0,0.0
13:18:31.3509,-8.26,0.05,-173.64,0.0,0.0,0.0
13:18:31.4471,-8.26,0.05,-173.64,0.0,0.0,0.0
13:18:31.5003,-8.26,0.05,-173.64,0.0,0.0,0.0
13:18:31.5718,-8.26,0.06,-173.64,0.0,0.0,0.0
13:18:31.6388,-8.26,0.06,-173.64,0.0,0.0,0.0
13:18:31.6922,-8.26,0.05,-173.64,0.0,0.0,0.0
13:18:31.7528,-8.26,0.05,-173.64,0.0,0.0,0.0
13:18:31.8174,-8.26,0.05,-173.64,0.0,0.0,0.0
13:18:31.8833,-8.26,0.06,-173.64,0.0,0.0,0.0
13:18:31.9545,-8.26,0.06,-173.64,0.0,0.0,0.0
13:18:32.1718,-8.25,0.06,-173.64,0.0,0.0,0.0
13:18:32.8948,-8.25,0.06,-173.64,0.0,0.0,0.0
13:18:32.1514,-8.26,0.06,-173.64,0.0,0.0,0.0
13:18:32.2204,-8.26,0.06,-173.64,0.0,0.0,0.0
13:18:32.2855,-8.26,0.06,-173.64,0.0,0.0,0.0
13:18:32.3530,-8.26,0.05,-173.64,0.0,0.0,0.0
13:18:32.4202,-8.25,0.05,-173.64,-0.08,0.09,0.56
13:18:32.4879,-8.26,0.05,-173.6,-0.02,0.03,0.68
13:18:32.5559,-8.26,0.05,-173.65,0.11,0.09,1.29
13:18:32.6194,-8.74,0.38,-174.44,-11.11,-15.04,-10.05
13:18:32.6862,-8.71,0.45,-174.56,0.17,-2.23,1.53
13:18:32.7532,-8.63,0.68,-173.65,0.47,-9.18,-44.2
13:18:32.8193,-8.39,0.48,-171.98,3.15,-5.58,15.19
13:18:32.8865,-8.25,0.61,-172.34,-0.2,-10.77,-25.97
13:18:32.9525,-8.31,0.63,-172.6,-3.74,-3.39,11.35
13:18:33.2000,-8.47,1.11,-173.59,-3.74,-15.83,12.33
13:18:33.9196,-8.56,2.28,-174.27,-3.07,-23.51,6.29
13:18:33.1563,-8.39,3.7,-174.71,2.3,-27.9,2.08
13:18:33.2214,-7.72,5.07,-175.78,13.82,-27.05,19.34
13:18:33.2919,-6.69,5.83,-178.75,20.47,-19.91,55.31
13:18:33.3560,-5.6,5.92,176.94,23.46,-13.27,68.67
13:18:33.4243,-4.74,5.61,171.64,19.74,-9.67,81.96
13:18:33.4892,-4.19,5.48,166.52,11.69,-4.24,84.22
13:18:33.5606,-4.22,5.34,160.74,3.89,-6.13,91.35
13:18:33.6224,-5.09,5.09,154.07,-6.78,-9.61,103.12
13:18:33.6899,-6.3,4.84,147.0,-6.18,-16.68,109.09
13:18:33.7562,-7.2,4.82,139.49,-1.11,-21.5,118.42
13:18:33.8225,-7.58,5.06,131.35,5.9,-28.39,121.96
13:18:33.8894,-7.82,5.19,122.42,10.17,-24.49,129.89
13:18:33.9596,-7.56,4.97,113.95,18.4,-19.3,136.84
13:18:34.2349,-7.58,4.62,104.62,5.96,-11.93,138.91
13:18:34.9195,-8.27,3.59,95.02,-3.37,-12.54,144.16
13:18:34.1599,-9.04,2.83,84.75,-1.42,-21.01,145.99
13:18:34.2322,-9.24,2.47,75.19,7.06,-26.26,151.47
13:18:34.2913,-9.24,1.79,64.8,1.63,-16.44,149.77
13:18:34.3599,-9.47,0.75,54.92,0.72,-15.52,154.52
13:18:34.4286,-9.08,-0.12,44.2,8.03,-19.91,154.77
13:18:34.4963,-8.69,-0.35,33.99,0.65,-24.3,159.7
13:18:34.5587,-9.03,-1.22,23.73,-10.75,-11.32,144.95
13:18:34.6283,-8.67,-2.0,14.27,9.25,-21.01,155.92
13:18:34.6911,-8.58,-0.98,3.13,-10.2,-49.79,163.73
13:18:34.7583,-5.56,0.2,-5.75,-13.92,-4.55,83.24
13:18:34.8254,-6.66,-0.59,-12.5,18.52,-40.4,100.07
13:18:34.8960,-3.87,1.4,-16.67,44.68,-20.1,18.24
13:18:34.9643,-2.34,1.82,-20.07,-3.25,-28.69,103.49
13:18:35.2929,-4.65,1.34,-32.18,-25.69,-3.51,197.27
13:18:35.9522,-5.27,1.6,-41.99,2.3,-20.89,136.6
13:18:35.1638,-5.08,2.35,-50.59,6.08,-21.44,132.27
13:18:35.2330,-5.0,2.56,-59.6,11.26,-8.39,130.25
13:18:35.3005,-4.98,1.85,-69.52,3.22,-1.86,144.03
13:18:35.3642,-5.16,1.49,-78.79,-2.82,-12.84,142.2
13:18:35.4323,-5.45,2.02,-87.87,6.81,-29.36,118.24
13:18:35.5002,-5.3,2.95,-96.52,8.58,-14.49,137.69
13:18:35.5689,-5.16,2.32,-105.89,8.89,3.5,145.99
13:18:35.6292,-4.97,1.62,-115.3,4.62,-14.12,133.67
13:18:35.6961,-5.13,2.39,-124.05,-0.5,-26.74,124.22
13:18:35.7622,-5.52,2.97,-132.84,4.86,-13.27,130.74
13:18:35.8293,-5.08,2.89,-141.28,16.2,-8.51,121.72
13:18:35.8969,-4.48,2.87,-149.54,10.35,-9.0,125.74
13:18:35.9662,-4.64,2.77,-157.3,-1.97,-9.79,135.44
13:18:36.2326,-5.38,2.72,-165.16,-6.91,-14.36,132.51
13:18:36.8062,-5.93,2.77,-173.78,3.28,-10.89,126.05
13:18:36.1479,-5.75,3.02,174.78,1.69,-11.74,123.55
13:18:36.2461,-6.23,3.0,168.44,-5.81,-16.38,125.56
13:18:36.2944,-7.07,3.17,160.51,-4.04,-18.33,119.22
13:18:36.3623,-7.43,3.36,153.29,4.92,-16.07,111.53
13:18:36.4217,-7.29,3.27,146.73,11.75,-9.55,111.9
13:18:36.4800,-6.95,2.95,139.89,10.72,-7.9,115.31
13:18:36.5392,-6.84,2.67,133.04,4.25,-11.01,118.91
13:18:36.6004,-7.27,2.43,124.67,-3.92,-12.6,122.57
13:18:36.6647,-7.82,2.16,116.8,-2.88,-10.71,118.49
13:18:36.7295,-8.12,1.73,108.97,2.79,-9.18,112.08
13:18:36.7963,-8.04,1.3,101.69,5.23,-9.49,107.33
13:18:36.8625,-7.88,1.08,94.61,3.03,-13.69,103.73
13:18:36.9299,-8.0,1.27,87.51,-0.5,-19.12,104.64
13:18:36.9966,-8.03,1.37,80.23,6.14,-14.24,106.11
13:18:37.6432,-7.63,1.17,73.2,8.89,-8.94,108.61
13:18:37.1298,-7.37,0.63,65.69,2.18,-4.55,116.17
13:18:37.2000,-7.44,-0.25,57.64,-1.85,-0.65,120.74
13:18:37.2642,-7.38,-1.16,49.91,5.96,-1.13,118.49
13:18:37.3320,-6.95,-1.48,42.22,4.19,-12.84,108.49
13:18:37.4018,-6.45,-1.41,34.08,3.34,-14.3,108.79
13:18:37.4720,-6.16,-1.34,27.31,0.65,-10.95,112.33
13:18:37.5324,-5.99,-1.55,19.71,0.78,-8.21,109.34
13:18:37.5994,-5.61,-1.81,12.49,5.53,-6.32,102.94
13:18:37.6663,-4.88,-1.98,5.95,8.03,-5.77,100.56
13:18:37.7313,-4.1,-2.06,-2.01,3.52,-8.69,98.91
13:18:37.8113,-3.83,-2.02,-7.97,-0.26,-7.54,103.0
13:18:37.8703,-3.65,-1.85,-15.76,-1.3,-10.4,100.99
13:18:37.9459,-3.54,-1.62,-21.97,0.35,-8.94,96.96
13:18:38.7653,-3.3,-1.43,-27.57,2.36,-9.24,93.24
13:18:38.6663,-3.03,-1.08,-33.74,2.12,-11.07,90.62
13:18:38.1361,-2.67,-0.61,-39.75,6.81,-12.29,85.31
13:18:38.2008,-2.07,-0.06,-45.74,8.76,-10.1,86.47
13:18:38.2711,-1.53,0.31,-51.09,8.03,-7.66,81.96
13:18:38.3360,-1.1,0.59,-56.76,4.92,-3.45,86.17
13:18:38.4041,-0.91,0.56,-62.68,1.57,-1.86,90.38
13:18:38.4683,1.55,6.1,-69.48,147.73,-75.22,213.73
13:18:38.5322,-3.0,4.36,-82.62,-137.09,107.59,160.01
13:18:38.5976,-24.1,6.54,-92.02,-762.94,-135.52,47.02
13:18:38.6646,-1.34,-3.88,-68.05,-225.57,289.35,-431.39
13:18:38.7315,-28.76,-14.37,-45.75,-436.11,213.99,-272.12
13:18:38.7919,-140.14,-41.47,29.76,-1994.77,1997.65,1003.55
13:18:38.8524,-10.94,-77.07,-43.1,397.79,-1998.39,1066.17
13:18:38.9127,91.36,-34.85,-146.48,-801.85,-657.6,576.72
13:18:38.9735,76.46,2.6,-147.3,173.28,-66.56,661.41
13:18:39.3329,87.09,38.44,-139.02,129.37,-387.11,644.03
13:18:39.8967,132.59,62.42,-87.34,18.09,-622.96,641.17
13:18:39.1404,-177.74,38.66,-24.63,-110.08,-783.63,625.5
13:18:39.1862,-175.04,9.87,-5.93,-231.24,-863.08,605.62
13:18:39.2202,155.42,-34.82,30.46,-510.63,-830.46,538.91
13:18:39.2721,106.88,-37.22,75.47,-443.74,-504.06,535.25
13:18:39.3212,84.35,-13.11,95.27,-91.78,-191.8,499.1
13:18:39.3637,83.82,5.66,99.25,62.79,-142.35,475.62
13:18:39.4028,91.72,24.79,105.42,223.03,-192.72,439.46
13:18:39.4463,105.04,37.45,115.86,275.53,-249.73,432.75
13:18:39.4796,133.18,46.23,141.07,294.07,-375.65,434.7
13:18:39.5209,164.41,41.6,170.79,251.63,-434.3,437.69
13:18:39.5587,-170.84,16.16,-159.86,115.96,-416.38,441.11
13:18:39.6157,-165.4,-2.74,-146.31,72.67,-346.01,452.81
13:18:39.6505,-163.78,-13.31,-135.82,82.54,-253.94,460.25
13:18:39.6838,-163.79,-25.11,-123.15,105.9,-209.73,456.84
13:18:39.7172,-164.24,-33.34,-108.64,223.22,-105.95,449.52
13:18:39.7505,-161.56,-39.29,-93.09,419.31,-54.67,423.18
13:18:39.7839,-152.76,-45.96,-79.55,603.7,-79.85,388.55
13:18:39.8179,-137.57,-57.09,-68.54,701.69,-154.3,366.29
13:18:39.8513,-116.77,-72.77,-66.71,537.67,-255.34,374.46
13:18:39.8846,-22.74,-85.07,-149.72,134.13,-243.51,395.62
13:18:39.9180,49.09,-73.67,130.81,-510.81,43.07,425.31
13:18:39.9514,60.91,-63.0,95.05,-737.52,293.44,444.4
13:18:39.9846,66.15,-51.94,50.79,-421.24,358.56,428.91
13:18:40.3146,71.66,-40.16,31.15,44.98,-0.58,350.68
13:18:40.7660,72.14,-24.55,36.27,77.79,-309.97,311.11
13:18:40.1205,66.11,-7.76,44.17,-120.32,-191.62,280.99
13:18:40.1703,55.6,9.26,38.99,-115.5,72.71,278.12
13:18:40.2217,43.96,16.67,17.97,20.72,258.62,265.56
13:18:40.2838,42.76,12.8,-8.05,236.32,256.67,223.55
13:18:40.3499,53.09,13.26,-25.89,204.62,76.43,192.63
13:18:40.4185,53.01,22.86,-34.43,-103.8,-68.39,181.05
13:18:40.4928,33.85,33.54,-40.52,-268.86,-81.86,168.24
13:18:40.5607,12.04,38.44,-51.28,-169.22,-12.47,152.27
13:18:40.6185,-0.38,37.34,-62.92,42.85,8.38,127.51
13:18:40.6732,0.29,36.11,-70.16,203.82,-29.12,102.08
13:18:40.7195,7.98,37.0,-75.73,214.13,-62.78,83.36
13:18:40.7682,10.24,39.79,-80.08,-85.32,-60.16,78.06
13:18:40.8243,-1.2,39.84,-83.95,-297.82,22.34,75.8
13:18:40.8727,-18.82,34.99,-87.09,-326.91,80.03,64.64
13:18:40.9187,-29.11,30.13,-87.93,-132.7,54.23,37.57
13:18:40.9587,-27.44,27.5,-88.09,144.37,-38.27,-8.1
13:18:41.1386,-19.97,29.43,-87.98,110.59,-82.23,-28.41
13:18:41.5646,-17.4,31.61,-86.84,-70.63,-45.71,-35.17
13:18:41.9782,-22.89,31.72,-84.29,-270.14,25.88,-40.17
13:18:41.1406,-31.75,29.94,-80.74,-266.6,65.64,-54.32
13:18:41.1856,-36.54,28.22,-75.83,-82.39,56.49,-82.55
13:18:41.2245,-34.37,28.0,-71.9,68.34,27.95,-106.45
13:18:41.2579,-26.19,28.94,-66.72,165.65,-5.22,-130.78
13:18:41.2981,-16.42,30.43,-60.28,85.35,-20.4,-144.62
13:18:41.3361,-11.79,32.07,-51.2,-122.94,-26.01,-153.53
13:18:41.3908,-15.1,33.49,-41.69,-208.25,-14.18,-166.51
13:18:41.4381,-17.1,34.72,-31.15,-84.65,19.66,-188.1
13:18:41.4888,-13.02,34.09,-22.51,40.9,68.14,-203.47
13:18:41.5262,-0.98,29.29,-9.23,135.41,107.59,-223.59
13:18:41.5750,7.72,23.74,0.22,86.75,86.61,-234.99
13:18:41.6153,12.4,18.97,9.96,-20.87,2.65,-244.87
13:18:41.6525,12.89,17.37,20.51,-95.2,-81.8,-254.81
13:18:41.6922,11.74,18.18,31.08,-108.37,-105.04,-264.87
13:18:41.7313,11.17,18.88,41.57,-75.14,-55.34,-272.73
13:18:41.7654,11.84,16.93,51.89,-29.77,47.28,-277.49
13:18:41.8024,12.81,11.64,60.59,-12.21,137.16,-280.3
13:18:41.8378,12.28,-0.56,73.33,-26.66,168.07,-288.71
13:18:41.8913,9.56,-8.54,84.23,-25.63,93.68,-300.78
13:18:41.9329,5.56,-11.98,99.81,10.65,-35.28,-319.2
13:18:41.9809,3.72,-10.46,112.3,33.22,-82.47,-330.3
13:18:42.1941,2.76,-7.85,125.68,20.17,-68.39,-336.64
13:18:42.5687,0.65,-6.57,140.06,-43.19,-13.33,-338.83
13:18:42.9857,-5.02,-6.73,155.11,-131.78,35.88,-339.2
13:18:42.1432,-12.47,-6.37,168.24,-168.0,44.84,-342.98
13:18:42.1816,-19.73,-4.07,-178.35,-127.21,36.24,-352.25
13:18:42.2213,-23.31,1.19,-161.46,-10.2,27.65,-367.98
13:18:42.2705,-20.7,6.14,-145.66,69.92,39.66,-379.93
13:18:42.3134,-16.46,8.81,-133.09,79.68,45.57,-387.73
13:18:42.3468,-11.14,11.44,-116.5,29.98,9.17,-397.67
13:18:42.3876,-7.49,14.79,-100.36,-26.6,-47.78,-405.72
13:18:42.4289,-4.14,19.65,-82.76,-52.88,-93.63,-415.78
13:18:42.4718,2.13,24.62,-60.13,-39.35,-68.57,-425.9
13:18:42.5207,8.18,24.36,-42.67,-33.74,7.59,-430.48
13:18:42.5570,12.94,19.86,-26.51,-47.39,78.68,-433.22
13:18:42.5950,15.07,12.47,-11.62,-65.26,114.66,-437.86
13:18:42.6287,14.63,3.59,4.49,-61.6,98.56,-447.55
13:18:42.6688,13.26,-2.53,18.4,-23.43,57.71,-459.44
13:18:42.7043,12.02,-7.44,34.6,33.09,18.38,-473.04
13:18:42.7387,11.15,-11.44,52.64,70.29,4.96,-484.69
13:18:42.7764,8.97,-15.17,73.51,51.63,2.59,-494.75
13:18:42.8194,3.0,-17.39,97.34,-19.53,-11.62,-502.61
13:18:42.8650,-4.46,-16.32,116.92,-64.1,-34.43,-508.1
13:18:42.9025,-12.91,-11.24,139.07,-70.69,-38.08,-514.2
13:18:42.9467,-18.68,-3.49,162.92,-38.55,12.34,-519.01
13:18:42.9936,-20.12,1.99,-175.31,-25.32,84.66,-518.59
13:18:43.3772,-19.95,5.13,-153.82,-34.41,122.1,-517.19
13:18:43.7833,-19.02,7.61,-132.09,-34.89,108.62,-517.8
13:18:43.1166,-17.08,10.31,-113.68,-14.16,68.81,-519.81
13:18:43.1518,-13.1,13.5,-94.76,15.96,35.64,-520.66
13:18:43.1898,-7.18,16.0,-75.07,26.39,17.46,-517.86
13:18:43.2252,-0.69,16.89,-54.71,3.34,7.34,-511.58
13:18:43.2638,4.29,16.12,-34.65,-43.74,-1.93,-502.49
13:18:43.3017,7.01,14.42,-14.12,-85.81,-14.06,-492.37
13:18:43.3414,7.97,12.6,5.36,-92.33,-18.57,-482.73
13:18:43.3838,8.79,9.45,29.9,-57.88,9.35,-468.59
13:18:43.4331,9.63,0.29,65.12,-11.91,66.92,-442.73
13:18:43.5155,7.86,-6.87,88.19,-3.25,49.6,-423.95
13:18:43.5652,5.57,-9.74,102.79,5.53,17.1,-412.12
13:18:43.6056,2.16,-10.85,124.12,17.79,-16.32,-393.65
13:18:43.6563,-1.41,-9.65,148.52,-2.52,-11.8,-366.94
13:18:43.7157,-4.29,-8.94,161.88,-36.72,8.68,-347.8
13:18:43.7561,-8.51,-8.19,175.52,-68.49,25.76,-326.7
13:18:43.7925,-13.42,-6.82,-170.81,-69.1,30.03,-305.48
13:18:43.8387,-17.02,-4.56,-157.89,-30.87,25.33,-286.21
13:18:43.8800,-17.97,-2.05,-147.02,11.69,20.51,-269.08
13:18:43.9191,-17.11,0.5,-136.66,31.51,14.29,-250.66
13:18:43.9600,-15.88,2.57,-128.46,22.42,4.6,-233.16
13:18:43.9949,-15.03,4.99,-120.1,-8.43,-11.19,-213.04
13:18:44.3943,-15.42,9.08,-109.83,-43.43,-32.9,-184.69
13:18:44.9019,-15.96,12.6,-102.61,-35.93,-27.84,-161.64
13:18:44.1387,-15.39,15.19,-96.01,-7.09,-4.18,-137.8
13:18:44.1793,-13.9,16.12,-91.31,17.42,16.79,-119.38
13:18:44.2165,-11.93,16.19,-87.21,26.32,26.98,-101.27
13:18:44.2503,-10.06,16.0,-83.67,21.57,16.55,-82.98
13:18:44.2887,-8.73,16.27,-80.84,6.51,-7.05,-64.56
13:18:44.3243,-8.24,17.16,-79.02,-7.52,-29.43,-48.22
13:18:44.3596,-8.4,19.3,-77.48,-14.22,-41.93,-23.83
13:18:44.4058,-8.7,20.76,-77.13,-5.87,-26.8,-4.01
13:18:44.4452,-8.77,21.24,-77.39,7.36,-3.57,13.18
13:18:44.4792,-8.56,20.79,-78.2,18.7,19.78,31.11
13:18:44.5157,-8.24,19.68,-79.57,24.13,27.53,47.81
13:18:44.5522,-8.09,18.53,-81.55,18.22,18.5,63.73
13:18:44.5881,-8.52,17.86,-84.28,3.46,-3.39,79.52
13:18:44.6262,-9.72,17.85,-87.71,-9.89,-21.38,94.77
13:18:44.6618,-11.19,18.03,-91.22,-13.0,-25.46,107.45
13:18:44.6951,-13.76,17.73,-98.18,1.81,-12.72,129.28
13:18:44.7545,-15.03,16.09,-105.24,28.89,7.83,147.69
13:18:44.7996,-15.18,13.49,-112.74,38.46,15.51,165.01
13:18:44.8500,-15.33,10.74,-120.62,22.3,8.32,181.29
13:18:44.8946,-16.03,8.79,-127.38,2.48,-3.21,193.55
13:18:44.9305,-17.4,6.75,-135.63,-12.39,-13.69,206.41
13:18:44.9729,-18.51,5.09,-142.48,-9.53,-18.02,216.05
13:18:45.6338,-19.1,3.28,-149.81,7.18,-19.3,225.01
13:18:45.3974,-18.66,0.99,-158.77,29.86,-17.84,234.95
13:18:45.8057,-17.47,-0.9,-166.2,43.64,-13.82,242.63
13:18:45.1139,-15.4,-3.14,-175.36,44.01,-10.34,252.45
13:18:45.1521,-13.12,-5.44,174.01,25.17,-6.56,263.55
13:18:45.1936,-11.21,-7.76,162.58,5.53,1.0,274.16
13:18:45.2367,-9.55,-9.68,152.06,-1.11,-2.6,281.72
13:18:45.2727,-7.7,-10.97,141.74,2.48,-11.07,287.2
13:18:45.3088,-5.3,-11.6,131.12,14.19,-20.83,291.66
13:18:45.3445,-2.4,-10.96,120.3,23.09,-35.95,295.01
13:18:45.3809,0.24,-9.51,110.04,25.04,-40.71,298.36
13:18:45.4160,2.79,-7.84,99.15,25.23,-34.06,302.33
13:18:45.4511,4.9,-6.2,88.84,24.68,-21.44,305.25
13:18:45.4865,6.76,-4.59,77.88,21.63,-5.89,307.75
13:18:45.5216,8.12,-3.25,67.78,22.61,3.56,308.79
13:18:45.5550,9.16,-1.62,56.49,21.81,0.15,308.24
13:18:45.5905,9.92,0.26,46.21,15.04,-9.06,306.72
13:18:45.6258,9.98,2.91,34.9,4.19,-25.16,303.97
13:18:45.6634,9.02,6.11,23.46,-6.18,-36.62,300.44
13:18:45.7046,7.32,9.03,12.63,-6.91,-34.97,296.6
13:18:45.7401,5.2,11.44,1.47,1.45,-27.78,291.72
13:18:45.7769,3.26,13.02,-9.08,15.41,-17.66,285.92
13:18:45.8136,1.44,13.98,-20.38,25.78,-9.49,279.1
13:18:45.8517,-0.66,14.46,-33.43,18.4,-7.9,270.74
13:18:45.9025,-3.12,14.39,-44.75,-0.08,-5.04,263.18
13:18:45.9399,-5.7,13.84,-54.36,-11.11,-4.3,255.13
13:18:45.9767,-8.41,12.9,-63.84,-14.35,-6.38,245.5
13:18:46.1431,-10.84,11.59,-73.56,-1.66,-10.04,233.42
13:18:46.5210,-12.1,10.55,-80.94,9.43,-16.26,223.06
13:18:46.8544,-13.06,9.52,-88.85,12.36,-20.95,211.53
13:18:46.1198,-13.76,8.51,-96.12,12.61,-17.47,200.44
13:18:46.1577,-14.4,7.05,-104.22,8.4,-7.35,187.33
13:18:46.1980,-14.96,5.36,-111.11,2.3,0.94,174.58
13:18:46.2360,-15.4,3.43,-117.89,2.36,1.85,160.13
13:18:46.2796,-15.54,1.65,-124.51,3.46,-5.34,144.16
13:18:46.3265,-15.54,0.54,-130.41,1.32,-17.11,128.06
13:18:46.3695,-15.53,-0.03,-135.5,0.29,-19.79,113.0
13:18:46.4181,-15.56,-0.72,-141.87,-2.52,-13.33,91.41
13:18:46.4717,-15.68,-1.5,-146.32,-5.08,-2.78,72.45
13:18:46.5286,-15.95,-2.25,-149.35,-10.38,-3.63,55.07
13:18:46.5763,-16.55,-2.55,-151.8,-14.83,-11.44,35.56
13:18:46.6316,-17.36,-2.12,-153.39,-16.48,-19.49,15.56
13:18:46.6904,-18.18,-1.12,-153.99,-9.47,-13.94,-6.82
13:18:46.7501,-18.57,-0.19,-153.09,-4.22,-6.44,-28.59
13:18:46.8157,-18.95,1.03,-150.75,-8.74,-8.69,-50.05
13:18:46.8865,-19.45,3.17,-147.27,-9.04,-16.44,-70.11
13:18:46.9468,-19.33,6.15,-142.15,0.84,-10.95,-89.93
13:18:47.2293,-18.18,8.69,-135.01,2.3,5.45,-107.43
13:18:47.9494,-17.32,10.12,-129.47,-3.86,5.03,-117.86
13:18:47.1439,-16.43,11.88,-123.21,-7.21,-1.56,-127.98
13:18:47.2000,-15.2,14.19,-115.93,-5.2,-6.93,-137.61
13:18:47.2539,-13.26,16.41,-107.73,-4.1,2.22,-145.3
13:18:47.3106,-10.98,17.7,-98.82,-7.46,14.78,-151.09
13:18:47.3676,-8.1,18.35,-87.43,-11.6,12.71,-157.12
13:18:47.4397,-5.83,19.01,-78.71,-6.6,2.1,-161.27
13:18:47.4913,-3.54,19.58,-71.16,-4.22,-0.22,-163.41
13:18:47.5317,-1.36,19.81,-64.03,-7.58,4.84,-164.32
13:18:47.5738,0.86,19.29,-55.84,-15.14,17.77,-163.83
13:18:47.6205,2.1,18.48,-50.16,-20.69,22.04,-163.28
13:18:47.6542,3.26,17.32,-43.37,-24.96,19.35,-162.49
13:18:47.6956,4.4,16.1,-35.83,-19.59,13.87,-161.64
13:18:47.7404,5.53,15.13,-29.2,-13.86,6.31,-160.66
13:18:47.7783,6.89,14.22,-21.67,-10.99,0.82,-158.53
13:18:47.8247,7.94,13.28,-14.96,-16.36,4.29,-155.23
13:18:47.8681,8.48,12.24,-9.07,-23.68,6.0,-151.64
13:18:47.9050,8.62,10.76,-1.29,-28.31,6.24,-146.76
13:18:47.9558,8.57,9.76,4.37,-24.53,1.67,-143.47
13:18:47.9947,8.72,8.88,10.62,-14.35,-3.94,-139.87
13:18:48.4344,9.28,8.07,17.39,-5.14,-5.22,-135.11
13:18:48.8836,9.95,7.18,23.73,-4.22,-1.56,-129.14
13:18:48.1373,10.25,6.29,28.99,-11.11,-0.52,-123.04
13:18:48.1792,10.14,5.4,34.21,-16.3,-2.35,-116.58
13:18:48.2218,9.9,4.79,38.85,-14.22,-7.66,-110.42
13:18:48.2668,9.82,4.39,43.67,-5.87,-9.36,-103.34
13:18:48.3078,10.18,3.87,48.51,4.98,-2.54,-94.56
13:18:48.3583,10.73,3.06,52.58,6.45,4.9,-85.23
13:18:48.4047,11.01,1.9,56.72,-3.8,5.88,-73.77
13:18:48.4568,10.78,1.22,59.48,-9.53,0.88,-64.99
13:18:48.4997,10.22,0.72,62.7,-11.91,-3.02,-53.22
13:18:48.5542,9.88,0.46,64.45,-7.46,0.57,-45.42
13:18:48.5890,9.75,0.07,66.01,0.11,5.03,-36.94
13:18:48.6281,9.82,-0.45,67.2,1.75,11.43,-27.86
13:18:48.6662,9.81,-1.13,67.96,-1.78,16.43,-18.41
13:18:48.7045,9.63,-1.93,68.43,-5.93,13.01,-7.86
13:18:48.7528,9.16,-2.46,68.44,-11.78,8.87,3.12
13:18:48.8000,8.79,-2.66,68.08,-5.57,2.83,12.02
13:18:48.8415,8.72,-2.66,67.48,0.11,3.62,19.95
13:18:48.8808,8.88,-2.75,66.48,5.35,8.93,28.3
13:18:48.9185,9.21,-2.99,65.19,8.46,13.87,36.23
13:18:48.9592,9.6,-3.32,63.68,7.97,17.34,43.42
13:18:48.9927,9.94,-3.64,61.86,4.31,15.82,50.38
13:18:49.3105,10.2,-3.8,59.81,3.52,11.06,56.47
13:18:49.6675,10.5,-3.68,57.6,5.11,4.84,61.78
13:18:49.1045,10.95,-3.26,54.83,8.4,0.76,67.88
13:18:49.1480,11.48,-2.75,52.21,12.67,-0.28,72.69
13:18:49.1864,12.38,-2.0,48.57,16.87,1.43,78.49
13:18:49.2348,13.17,-1.34,45.32,16.14,2.28,82.81
13:18:49.2759,13.83,-0.6,41.93,13.89,0.76,86.47
13:18:49.3153,14.38,0.4,38.28,11.39,-4.49,89.34
13:18:49.3584,14.78,1.74,34.42,9.37,-8.69,91.41
13:18:49.4061,14.99,3.4,30.07,7.73,-10.52,93.49
13:18:49.4543,15.09,5.15,25.65,7.54,-11.74,94.77
13:18:49.5043,14.94,6.66,21.9,4.31,-11.19,95.25
13:18:49.5466,14.42,8.37,17.38,-1.18,-9.91,95.44
13:18:49.5970,13.46,10.15,12.46,-3.13,-9.85,94.77
13:18:49.6507,12.66,11.42,8.72,-3.07,-10.1,93.67
13:18:49.6920,11.41,12.93,3.9,-5.02,-8.27,92.14
13:18:49.7438,10.39,13.98,0.29,-4.59,-10.28,90.25
13:18:49.7871,9.08,15.12,-3.72,-8.74,-9.36,88.12
13:18:49.8303,7.76,15.97,-7.41,-6.66,-6.26,85.44
13:18:49.8712,6.5,16.61,-11.04,-4.22,-3.63,82.51
13:18:49.9157,5.43,17.08,-14.46,-0.02,-3.45,79.03
13:18:49.9542,4.49,17.59,-17.74,1.02,-8.39,75.19
13:18:49.9974,2.94,18.71,-22.63,-2.03,-15.34,69.52
13:18:50.6419,1.67,19.55,-26.08,-2.94,-12.29,65.07
13:18:50.1103,0.59,20.02,-29.02,-0.38,-6.8,61.05
13:18:50.1543,-0.89,20.23,-33.76,3.76,-2.23,53.24
13:18:50.2348,-2.06,20.46,-37.41,-2.82,-6.93,45.74
13:18:50.3053,-3.25,20.83,-40.02,-4.47,-8.63,39.03
13:18:50.3582,-4.34,20.95,-42.65,0.35,-0.28,30.74
13:18:50.4271,-4.72,20.77,-44.12,4.56,2.83,24.83
13:18:50.4780,-4.91,20.58,-45.08,1.63,2.95,19.89
13:18:50.5184,-5.14,20.44,-45.72,-2.27,2.04,15.99
13:18:50.5521,-5.56,20.27,-46.27,-8.68,3.62,11.17
13:18:50.5907,-5.97,20.13,-46.58,-8.98,2.89,7.14
13:18:50.6254,-6.25,20.0,-46.74,-3.86,4.42,2.57
13:18:50.6591,-6.33,19.77,-46.73,-1.36,8.87,-1.39
13:18:50.6926,-6.22,19.46,-46.54,3.4,6.18,-6.58
13:18:50.7308,-5.92,19.4,-46.18,6.45,0.33,-11.33
13:18:50.7659,-5.55,19.46,-45.74,6.26,-1.01,-14.93
13:18:50.7993,-5.16,19.54,-45.11,4.13,-0.89,-18.41
13:18:50.8346,-4.81,19.64,-44.35,1.02,-0.46,-21.58
13:18:50.8701,-4.54,19.68,-43.47,-2.39,1.61,-24.26
13:18:50.9064,-4.34,19.64,-42.46,-4.89,4.05,-26.64
13:18:50.9425,-4.14,19.59,-41.48,-2.03,2.89,-29.01
13:18:50.9758,-3.78,19.59,-40.45,3.09,1.55,-31.15
13:18:51.9256,-3.21,19.62,-39.32,7.24,0.33,-33.34
13:18:51.4263,-2.48,19.7,-38.01,8.89,-0.77,-35.54
13:18:51.7683,-1.78,19.75,-36.79,8.46,0.09,-36.58
13:18:51.1101,-0.79,19.67,-34.76,4.98,3.56,-38.04
13:18:51.1603,0.15,19.46,-32.33,0.04,5.51,-39.08
13:18:51.2212,0.86,19.15,-30.37,3.15,4.05,-40.17
13:18:51.2653,1.94,18.99,-28.17,9.43,1.92,-40.97
13:18:51.3176,3.98,18.37,-24.44,6.57,11.0,-39.32
13:18:51.4086,4.66,17.41,-22.37,-2.7,17.46,-37.55
13:18:51.4605,4.95,16.54,-20.83,-4.71,17.04,-36.09
13:18:51.5012,5.16,15.88,-19.48,-3.07,11.43,-35.11
13:18:51.5391,5.51,15.43,-18.19,3.46,7.46,-33.95
13:18:51.5774,6.03,15.03,-16.92,5.47,7.53,-32.19
13:18:51.6128,6.56,14.51,-15.62,4.07,11.31,-29.56
13:18:51.6567,6.91,13.87,-14.53,0.23,13.38,-26.88
13:18:51.6949,7.12,13.2,-13.56,-0.14,13.44,-24.08
13:18:51.7363,7.36,12.65,-12.74,2.79,10.15,-21.76
13:18:51.7745,7.76,12.27,-11.89,7.79,2.65,-19.44
13:18:51.8195,8.38,12.13,-11.08,11.14,-0.28,-16.33
13:18:51.8600,8.98,11.96,-10.44,9.13,3.5,-12.67
13:18:51.9040,9.36,11.39,-9.93,-0.2,13.38,-7.25
13:18:51.9665,9.3,10.55,-9.81,-1.48,15.7,-2.92
13:18:52.1433,9.31,9.99,-9.84,3.09,10.45,-0.05
13:18:52.5837,9.71,9.67,-9.97,11.69,2.65,3.06
13:18:52.1105,10.18,9.67,-10.19,9.37,0.15,5.8
13:18:52.1603,10.26,9.51,-10.69,-4.47,8.99,10.31
13:18:52.2196,9.71,8.97,-11.45,-8.68,14.78,13.61
13:18:52.2689,9.37,8.32,-12.42,2.48,10.76,15.07
13:18:52.3254,9.75,8.16,-13.33,12.67,-0.16,15.07
13:18:52.3822,10.08,8.4,-13.9,7.48,-6.8,15.8
13:18:52.4237,10.09,8.86,-14.62,-2.27,-5.22,17.08
13:18:52.4711,9.6,9.15,-15.5,-9.96,-0.28,17.75
13:18:52.5201,9.15,9.24,-16.25,-2.76,1.92,16.72
13:18:52.5624,9.13,9.25,-16.81,5.84,2.65,15.5
13:18:52.5964,9.36,9.29,-17.38,10.35,-0.71,13.97
13:18:52.6335,9.73,9.54,-17.85,12.0,-9.18,12.45
13:18:52.6729,10.04,10.1,-18.18,7.91,-17.17,11.17
13:18:52.7079,10.07,11.0,-18.49,-3.43,-20.95,10.01
13:18:52.7533,9.8,11.81,-18.74,-5.14,-14.61,8.67
13:18:52.7961,9.6,12.22,-19.01,-1.54,-1.86,7.27
13:18:52.8337,9.55,12.16,-19.26,2.3,6.0,5.8
13:18:52.8682,9.74,11.93,-19.49,7.73,5.64,3.3
13:18:52.9103,9.93,11.87,-19.6,0.04,-3.08,0.99
13:18:52.9549,9.79,12.13,-19.56,-7.58,-11.32,-0.97
13:18:52.9910,9.46,12.6,-19.4,-12.94,-15.22,-3.28
13:18:53.2660,8.93,13.09,-19.14,-16.66,-11.01,-5.42
13:18:53.6671,8.41,13.33,-18.84,-12.15,-3.69,-7.55
13:18:53.1038,8.15,13.27,-18.49,-5.87,3.62,-9.44
13:18:53.1509,7.99,12.97,-18.04,-5.63,4.9,-11.51
13:18:53.1899,7.88,12.83,-17.59,-6.3,-0.77,-13.28
13:18:53.2264,7.64,12.93,-16.97,-11.97,-7.17,-14.93
13:18:53.2694,7.21,13.22,-16.24,-15.38,-10.46,-16.51
13:18:53.3094,6.75,13.55,-15.45,-14.65,-8.82,-17.98
13:18:53.3511,6.44,13.75,-14.61,-8.31,-3.94,-19.14
13:18:53.3982,6.46,13.76,-13.66,-1.3,-1.44,-20.42
13:18:53.4405,7.0,13.76,-11.95,-0.32,-4.61,-22.06
13:18:53.5172,7.07,13.96,-10.33,-6.72,-5.77,-22.31
13:18:53.5868,6.94,14.09,-8.8,-6.42,-3.63,-21.64
13:18:53.6525,7.12,14.12,-7.67,1.93,-3.33,-21.58
13:18:53.7064,7.55,14.08,-6.66,5.72,-0.77,-20.6
13:18:53.7485,8.02,13.94,-5.82,6.69,1.98,-19.56
13:18:53.7897,8.4,13.76,-5.06,2.48,2.4,-18.28
13:18:53.8305,8.52,13.46,-4.39,-4.1,6.0,-16.7
13:18:53.8697,8.43,13.2,-3.81,-6.97,2.34,-15.23
13:18:53.9071,8.28,13.14,-3.21,-7.03,-1.74,-14.14
13:18:53.9477,8.17,13.07,-2.64,-3.86,1.12,-12.49
13:18:53.9935,8.34,12.77,-2.04,3.95,6.92,-10.72
13:18:54.4151,8.64,12.01,-1.57,2.12,11.92,-7.8
13:18:54.1068,8.69,11.62,-1.27,-2.46,1.24,-6.09
13:18:54.1524,8.61,11.72,-1.03,-2.94,-6.26,-4.5
13:18:54.1915,8.57,11.97,-0.86,-1.66,-9.24,-3.41
13:18:54.2257,8.58,12.3,-0.7,0.96,-7.47,-1.88
13:18:54.2640,8.65,12.43,-0.65,1.87,-0.1,-0.11
13:18:54.2983,8.66,12.29,-0.72,-0.87,4.84,2.2
13:18:54.3417,8.57,12.16,-0.85,-2.88,2.83,3.73
13:18:54.3802,8.35,12.13,-1.03,-6.11,-0.77,5.19
13:18:54.4180,8.05,12.37,-1.23,-5.75,-9.49,6.05
13:18:54.4573,7.85,13.05,-1.47,-0.69,-14.85,7.63
13:18:54.5038,7.82,13.6,-1.72,1.26,-12.96,9.46
13:18:54.5433,7.75,14.02,-2.15,0.72,-4.12,11.78
13:18:54.5847,7.65,14.15,-2.66,0.59,1.55,13.61
13:18:54.6239,7.46,14.01,-3.41,-1.05,6.0,15.86
13:18:54.6730,7.16,13.98,-4.3,-2.15,-1.26,17.08
13:18:54.7245,6.85,14.21,-5.06,-3.98,-5.83,18.49
13:18:54.7665,6.47,14.66,-5.99,-2.58,-6.5,20.25
13:18:54.8147,6.1,14.96,-6.92,-3.13,-1.13,21.96
13:18:54.8615,5.74,14.88,-8.0,-0.5,8.5,24.16
13:18:54.9041,5.49,14.59,-9.03,0.35,9.54,25.19
13:18:54.9431,5.2,14.37,-10.16,-0.32,6.85,26.66
13:18:54.9840,4.87,14.28,-11.32,-1.97,1.67,27.88
13:18:55.2508,4.46,14.43,-12.46,-4.41,-3.51,28.97
13:18:55.6467,4.01,14.63,-13.64,-2.7,-2.23,30.01
13:18:55.1046,3.67,14.71,-14.84,0.29,2.89,31.05
13:18:55.1426,3.44,14.56,-16.16,5.41,7.83,32.08
13:18:55.1810,3.43,14.3,-17.45,10.04,9.23,32.75
13:18:55.2180,3.49,14.11,-18.61,9.5,5.51,33.3
13:18:55.2557,3.38,14.09,-20.8,4.8,-1.32,33.73
13:18:55.3188,3.06,14.32,-22.92,1.69,-2.05,33.97
13:18:55.3768,2.79,14.38,-24.52,5.35,3.32,33.67
13:18:55.4219,2.79,14.22,-25.95,10.59,7.77,32.94
13:18:55.4642,2.88,13.97,-27.14,10.47,8.07,32.45
13:18:55.5011,2.95,13.77,-28.51,8.82,6.0,31.35
13:18:55.5406,2.91,13.62,-29.97,3.28,3.01,30.01
13:18:55.5845,2.43,13.12,-31.26,-0.87,-0.04,28.36
13:18:55.6269,1.99,12.72,-32.35,1.45,1.85,26.59
13:18:55.6653,1.62,12.19,-33.53,3.52,2.77,24.4
13:18:55.7064,1.49,11.74,-34.35,8.7,4.48,22.33
13:18:55.7400,1.54,11.16,-35.28,11.75,5.33,19.83
13:18:55.7797,1.63,10.68,-35.96,8.89,4.96,17.57
13:18:55.8143,1.57,10.15,-36.64,3.22,4.17,15.25
13:18:55.8537,1.36,9.72,-37.21,0.17,1.98,12.02
13:18:55.8921,1.04,9.3,-37.75,-0.38,-0.77,8.06
13:18:55.9420,0.92,8.95,-38.11,7.12,-1.74,3.18
13:18:55.9971,1.22,8.48,-38.18,8.64,1.37,-2.0
13:18:56.6563,1.32,8.03,-38.0,1.08,1.18,-6.09
13:18:56.1156,1.02,7.67,-37.6,-5.93,0.45,-9.93
13:18:56.1652,0.63,7.39,-37.04,-3.68,-2.78,-14.32
13:18:56.2142,0.47,7.32,-36.22,1.39,-6.74,-18.95
13:18:56.2626,0.62,7.4,-35.18,5.72,-9.0,-22.98
13:18:56.3176,0.85,7.56,-33.83,1.39,-8.82,-26.15
13:18:56.3689,0.8,7.6,-32.67,-4.16,-7.6,-28.16
13:18:56.4110,0.48,7.66,-31.21,-8.0,-8.82,-30.36
13:18:56.4620,0.22,7.76,-30.07,-7.39,-9.0,-31.88
13:18:56.5011,0.04,7.86,-28.63,-2.27,-8.57,-33.71
13:18:56.5422,0.07,7.94,-27.29,0.23,-8.63,-35.17
13:18:56.5821,0.11,7.98,-25.72,-3.8,-5.52,-36.03
13:18:56.6277,-0.18,7.89,-23.65,-10.81,-4.61,-36.39
13:18:56.6814,-0.71,7.84,-21.78,-14.59,-5.95,-36.88
13:18:56.7401,-1.11,7.87,-20.28,-8.74,-6.32,-36.94
13:18:56.7738,-1.23,7.86,-18.91,-5.02,-4.36,-36.82
13:18:56.8122,-1.46,7.61,-16.02,-7.46,-1.38,-35.97
13:18:56.8913,-2.14,7.59,-13.37,-15.75,-7.54,-33.83
13:18:56.9737,-2.8,7.74,-11.39,-10.75,-5.77,-31.21
13:18:57.2904,-3.01,7.76,-9.9,-6.11,-4.55,-28.77
13:18:57.7844,-3.12,7.69,-8.46,-4.47,-1.01,-25.36
13:18:57.1302,-3.15,7.57,-7.59,-4.71,-3.02,-23.04
13:18:57.1660,-3.24,7.57,-6.8,-6.18,-5.34,-20.6
13:18:57.2042,-3.36,7.57,-6.12,-6.42,-3.82,-17.86
13:18:57.2377,-3.5,7.57,-5.47,-4.83,-7.41,-15.05
13:18:57.2813,-3.48,7.77,-4.7,2.3,-5.28,-9.5
13:18:57.3435,-3.14,7.63,-4.3,6.02,-3.94,-3.89
13:18:57.4077,-2.9,7.51,-4.26,0.29,-1.68,2.27
13:18:57.4618,-3.03,7.33,-4.59,-2.94,-6.07,7.88
13:18:57.5245,-3.21,7.28,-5.36,2.42,-4.85,14.28
13:18:57.5900,-2.92,7.18,-6.48,11.02,-3.15,19.77
13:18:57.6534,-2.43,6.82,-7.89,9.8,1.92,25.8
13:18:57.7134,-2.24,6.41,-9.46,3.89,1.61,30.74
13:18:57.7698,-2.37,5.91,-11.46,1.45,1.55,35.31
13:18:57.8295,-2.42,5.64,-13.57,6.45,-0.89,38.0
13:18:57.8863,-2.2,5.12,-16.08,8.46,5.21,41.05
13:18:57.9494,-2.01,4.59,-18.44,7.06,6.31,43.0
13:18:58.4970,-1.94,4.1,-20.23,4.92,7.46,44.34
13:18:58.4775,-1.88,3.65,-22.59,7.24,3.2,44.64
13:18:58.9874,-1.67,3.31,-24.74,7.42,4.9,44.83
13:18:58.1468,-1.58,2.94,-27.07,4.37,4.96,44.77
13:18:58.1985,-1.56,2.52,-29.08,2.18,9.84,44.89
13:18:58.2439,-1.76,1.77,-31.74,1.69,10.39,43.97
13:18:58.3077,-1.53,1.04,-35.0,9.37,5.09,41.17
13:18:58.3843,-1.11,0.87,-36.93,12.0,2.04,39.22
13:18:58.4284,-0.83,0.75,-38.4,6.69,5.57,38.73
13:18:58.4667,-0.76,0.5,-39.88,1.32,7.46,37.51
13:18:58.5068,-0.91,0.12,-41.6,-0.81,10.33,35.74
13:18:58.5527,-0.97,-0.26,-42.98,2.24,9.05,33.49
13:18:58.5933,-0.91,-0.48,-44.1,7.12,4.78,30.86
13:18:58.6285,-0.62,-0.54,-45.31,11.14,-0.95,28.06
13:18:58.6725,-0.28,-0.31,-46.43,7.3,-6.99,25.38
13:18:58.7110,-0.18,0.02,-47.39,2.61,-6.56,23.67
13:18:58.7494,-0.28,0.28,-48.26,-2.88,-4.97,22.02
13:18:58.7895,-0.59,0.49,-49.14,-5.99,-1.74,20.13
13:18:58.8295,-0.88,0.52,-49.84,-4.1,0.57,18.24
13:18:58.8698,-1.11,0.61,-50.57,-0.99,-5.28,15.62
13:18:58.9099,-1.19,0.97,-51.22,1.32,-10.46,13.18
13:18:58.9560,-1.35,1.72,-51.94,-5.38,-15.16,10.5
13:18:59.1451,-1.91,2.36,-52.46,-13.0,-9.36,8.97
13:18:59.6542,-2.61,2.57,-52.85,-16.05,-2.9,7.57
13:18:59.1100,-3.28,2.59,-53.12,-17.39,-1.86,5.99
13:18:59.1493,-3.87,2.66,-53.32,-11.24,-6.32,3.91
13:18:59.1875,-4.15,2.9,-53.45,-4.59,-11.01,1.84
13:18:59.2295,-4.23,3.34,-53.52,-1.72,-14.12,-0.17
13:18:59.2652,-4.26,3.73,-53.53,-3.0,-10.58,-1.09
13:18:59.3007,-4.39,3.94,-53.49,-8.8,-3.45,-1.64
13:18:59.3380,-4.79,3.89,-53.42,-16.78,2.04,-2.0
13:18:59.3747,-5.36,3.65,-53.31,-17.88,6.18,-2.92
13:18:59.4113,-5.84,3.39,-53.16,-12.58,4.42,-4.32
13:18:59.4472,-6.03,3.25,-52.98,-1.18,-0.16,-5.84
13:18:59.4817,-5.74,3.32,-52.73,8.7,-5.77,-7.37
13:18:59.5207,-5.31,3.49,-52.48,9.62,-5.71,-7.49
13:18:59.5566,-4.82,3.6,-52.16,4.5,-0.46,-6.76
13:18:59.6025,-4.66,3.48,-51.91,-0.57,5.45,-5.97
13:18:59.6433,-4.63,3.12,-51.64,-1.18,8.62,-5.54
13:18:59.6837,-4.52,2.75,-51.38,6.45,6.24,-5.84
13:18:59.7224,-3.98,2.53,-51.11,19.43,2.22,-6.64
13:18:59.7657,-3.11,2.46,-50.86,24.74,-0.16,-6.7
13:18:59.8019,-2.25,2.47,-50.63,25.53,-1.99,-6.7
13:18:59.8360,-1.49,2.52,-50.43,20.96,-2.66,-5.84
13:18:59.8698,-0.9,2.55,-50.24,13.64,0.33,-5.05
13:18:59.9037,-0.61,2.45,-50.09,9.25,4.84,-4.2
13:18:59.9370,-0.26,2.11,-49.93,14.98,10.57,-3.71
13:18:59.9784,0.31,1.67,-49.81,24.01,13.81,-3.53
13:19:00.1508,1.21,1.13,-49.67,29.74,13.38,-3.71
13:19:00.5292,2.3,0.63,-49.53,24.43,8.26,-3.47
13:19:00.1018,2.93,0.18,-49.32,5.04,7.59,-2.37
13:19:00.1829,3.02,-0.54,-48.84,11.69,14.42,-2.98
13:19:00.2640,3.55,-1.62,-48.28,9.25,12.04,-3.71
13:19:00.3500,3.28,-1.89,-47.81,-7.33,3.32,-4.01
13:19:00.4044,2.31,-1.75,-47.25,-11.05,-1.44,-5.48
13:19:00.4662,1.54,-1.57,-46.72,-7.27,0.76,-7.19
13:19:00.5173,1.16,-1.52,-46.19,-1.3,1.43,-8.71
13:19:00.5640,0.51,-1.11,-45.08,-7.58,-8.76,-11.45
13:19:00.6426,0.15,-0.74,-44.65,-10.2,-12.9,-12.8
13:19:00.6760,-0.56,0.09,-43.9,-14.77,-17.11,-14.5
13:19:00.7270,-1.6,1.08,-42.94,-15.38,-14.18,-16.94
13:19:00.7780,-2.17,1.62,-42.3,-14.04,-13.45,-18.65
13:19:00.8180,-2.84,2.19,-41.45,-15.5,-10.46,-20.42
13:19:00.8631,-3.58,2.72,-40.48,-16.97,-9.67,-22.55
13:19:00.9133,-4.49,3.2,-39.38,-22.52,-6.44,-24.08
13:19:00.9654,-5.36,3.49,-38.36,-20.93,-4.73,-25.6
13:19:01.1395,-6.34,3.74,-36.93,-19.59,-3.94,-27.25
13:19:01.7819,-6.91,3.97,-35.82,-15.14,-5.16,-28.47
13:19:01.1208,-7.28,4.25,-34.64,-12.76,-3.39,-29.08
13:19:01.1638,-7.54,4.32,-33.52,-14.16,3.87,-28.77
13:19:01.2049,-7.83,4.13,-32.4,-14.35,7.83,-28.47
13:19:01.2431,-8.09,3.9,-31.33,-11.91,7.65,-28.1
13:19:01.2810,-8.23,3.68,-30.17,-8.37,5.45,-27.61
13:19:01.3229,-8.21,3.62,-29.07,-3.13,0.64,-27.55
13:19:01.3614,-7.76,3.74,-27.49,5.53,0.45,-25.91
13:19:01.4197,-7.16,3.75,-26.31,9.01,1.49,-24.38
13:19:01.4646,-6.54,3.61,-25.28,8.82,8.87,-21.94
13:19:01.5073,-6.02,3.24,-24.38,5.47,8.68,-19.5
13:19:01.5492,-5.75,2.99,-23.65,2.12,4.78,-17.43
13:19:01.5865,-5.48,2.87,-23.02,7.36,2.16,-15.48
13:19:01.6250,-4.87,2.83,-22.35,13.4,-0.16,-13.34
13:19:01.6723,-4.17,2.79,-21.85,16.39,3.87,-10.05
13:19:01.7135,-3.48,2.52,-21.5,14.13,10.76,-6.76
13:19:01.7527,-3.01,2.05,-21.27,6.93,11.61,-3.41
13:19:01.7928,-2.88,1.55,-21.19,-0.63,11.92,0.62
13:19:01.8356,-2.94,1.11,-21.26,-1.48,9.72,3.91
13:19:01.8769,-2.96,0.79,-21.45,0.96,9.11,6.59
13:19:01.9159,-2.82,0.32,-21.91,5.11,8.56,10.68
13:19:01.9710,-2.64,0.05,-22.33,2.97,9.11,13.79
13:19:02.7689,-2.67,-0.27,-22.96,-5.32,8.26,17.69
13:19:02.4631,-2.93,-0.5,-23.7,-7.7,5.57,20.68
13:19:02.8666,-3.24,-0.64,-24.5,-10.14,3.93,23.3
13:19:02.1239,-3.57,-0.76,-25.41,-5.57,4.35,25.44
13:19:02.1616,-3.57,-0.88,-26.46,3.58,2.59,27.45
13:19:02.2007,-3.22,-0.89,-27.9,7.67,-1.8,29.34
13:19:02.2539,-2.89,-0.64,-29.53,0.9,-6.62,31.59
13:19:02.3044,-3.19,-0.23,-31.63,-10.63,-5.77,34.16
13:19:02.3696,-3.67,0.03,-33.33,-10.38,-6.93,34.95
13:19:02.4122,-3.94,0.26,-34.72,-4.1,-7.54,35.19
13:19:02.4477,-3.92,0.65,-36.54,4.13,-12.84,35.31
13:19:02.4957,-3.73,1.16,-38.08,4.19,-16.74,35.13
13:19:02.5364,-3.63,1.64,-39.23,1.02,-18.21,35.38
13:19:02.5698,-3.73,2.25,-40.83,-3.55,-14.36,35.92
13:19:02.6120,-3.94,2.62,-42.31,-6.24,-10.16,36.29
13:19:02.6538,-4.24,2.84,-43.53,-9.77,-10.04,36.23
13:19:02.6897,-4.68,3.11,-44.94,-9.41,-14.0,35.5
13:19:02.7314,-4.99,3.53,-46.21,-4.83,-17.96,33.85
13:19:02.7719,-5.13,4.04,-47.34,-1.66,-20.22,32.63
13:19:02.8113,-5.17,4.71,-48.87,1.26,-16.93,30.92
13:19:02.8578,-5.14,5.04,-50.22,-0.26,-10.34,29.95
13:19:02.9021,-5.32,5.11,-51.68,-6.36,-5.46,28.85
13:19:02.9488,-5.61,5.05,-52.84,-7.52,-5.28,27.39
13:19:02.9902,-5.89,5.05,-54.12,-2.58,-7.29,25.07
13:19:03.4053,-5.86,5.11,-55.26,3.22,-7.72,22.45
13:19:03.8823,-5.63,5.19,-56.33,3.15,-5.28,20.31
13:19:03.1358,-5.52,5.03,-57.31,-0.57,1.55,19.09
13:19:03.1852,-5.56,4.63,-58.14,-2.27,6.18,17.63
13:19:03.2305,-5.53,4.08,-58.85,1.26,7.77,15.86
13:19:03.2761,-5.27,3.57,-59.54,7.67,5.15,13.42
13:19:03.3271,-4.78,3.24,-60.07,12.42,3.87,11.9
13:19:03.3702,-4.21,2.98,-60.57,11.02,2.53,10.8
13:19:03.4166,-3.7,2.69,-61.07,8.52,5.45,10.07
13:19:03.4681,-3.07,1.88,-61.8,7.85,8.5,8.67
13:19:03.5551,-2.29,1.32,-62.4,14.98,4.29,6.17
13:19:03.6361,-1.1,1.21,-62.74,17.79,0.15,3.49
13:19:03.7015,-0.33,1.24,-62.92,11.02,-0.77,2.27
13:19:03.7643,0.03,1.23,-63.0,9.01,3.2,1.29
13:19:03.8125,0.25,0.99,-63.04,9.07,8.32,0.01
13:19:03.8587,0.54,0.61,-63.01,10.29,10.76,-1.39
13:19:03.9012,0.71,0.29,-62.95,5.35,8.07,-2.49
13:19:03.9365,0.77,0.09,-62.84,6.2,4.11,-4.01
13:19:03.9737,0.84,0.04,-62.67,3.52,1.79,-5.17
13:19:04.7111,0.76,0.06,-62.47,-0.99,-1.68,-6.88
13:19:04.4169,0.57,0.16,-62.17,-0.44,2.46,-8.22
13:19:04.8097,0.37,-0.07,-61.77,-1.97,10.7,-9.87
13:19:04.1261,0.16,-0.47,-61.35,-3.8,12.83,-11.51
13:19:04.1656,-0.27,-0.97,-60.79,-9.04,12.89,-13.71
13:19:04.2118,-0.76,-1.24,-60.18,-10.93,3.81,-16.33
13:19:04.2500,-1.31,-1.17,-59.46,-10.75,-1.32,-18.83
13:19:04.2897,-1.73,-1.0,-58.72,-7.94,-1.8,-20.84
13:19:04.3267,-2.08,-0.78,-57.87,-7.39,-4.73,-23.16
13:19:04.3673,-2.4,-0.4,-56.66,-2.27,-3.82,-25.6
13:19:04.4161,-2.57,-0.14,-55.36,-5.32,-1.56,-27.73
13:19:04.4660,-2.9,0.06,-54.17,-9.53,-2.9,-29.56
13:19:04.5090,-3.33,0.27,-52.89,-12.94,-2.9,-31.51
13:19:04.5494,-3.77,0.59,-51.64,-9.04,-10.1,-34.08
13:19:04.5880,-4.0,1.21,-50.26,-3.49,-15.22,-36.45
13:19:04.6293,-4.0,1.83,-49.0,-1.18,-15.83,-37.73
13:19:04.6626,-3.98,2.47,-47.71,-2.39,-18.45,-38.83
13:19:04.6974,-4.0,3.15,-46.33,-5.08,-16.93,-39.14
13:19:04.7319,-4.08,3.66,-44.87,-6.72,-8.94,-39.38
13:19:04.7668,-4.24,3.96,-43.36,-8.31,-6.8,-39.44
13:19:04.8033,-4.38,4.22,-42.0,-7.64,-8.15,-39.5
13:19:04.8384,-4.46,4.52,-40.73,-5.26,-9.43,-39.44
13:19:04.8733,-4.49,4.88,-39.48,-5.2,-11.38,-38.77
13:19:04.9083,-4.51,5.26,-38.29,-6.72,-10.83,-37.67
13:19:04.9443,-4.64,5.69,-36.74,-9.04,-9.06,-35.72
13:19:04.9908,-4.87,5.92,-35.16,-11.05,-2.41,-33.16
13:19:05.3364,-5.06,5.88,-34.0,-9.41,1.79,-30.97
13:19:05.6991,-5.16,5.71,-32.76,-3.68,3.14,-28.65
13:19:05.1103,-5.02,5.61,-31.75,1.69,-1.32,-26.88
13:19:05.1456,-4.84,5.62,-30.95,0.23,-2.54,-24.62
13:19:05.1790,-4.68,5.69,-29.93,-0.87,-4.24,-21.09
13:19:05.2227,-4.62,5.7,-29.16,-4.04,0.88,-17.31
13:19:05.2623,-4.7,5.43,-28.51,-4.53,8.44,-13.34
13:19:05.3040,-4.7,4.94,-28.0,2.3,9.6,-9.87
13:19:05.3433,-4.21,4.52,-27.62,17.12,2.65,-6.64
13:19:05.3885,-3.24,4.47,-27.41,23.52,-5.46,-3.04
13:19:05.4330,-2.25,4.62,-27.39,18.64,-4.3,1.84
13:19:05.4780,-1.75,4.56,-27.58,4.31,2.89,7.2
13:19:05.5194,-1.87,4.04,-28.09,-4.89,13.5,13.67
13:19:05.5702,-2.21,3.14,-28.95,-0.08,11.37,18.79
13:19:05.6216,-1.99,2.68,-29.95,15.53,3.68,22.27
13:19:05.6730,-1.07,2.5,-31.39,15.65,1.06,27.57
13:19:05.7283,-0.7,2.3,-32.91,2.67,7.77,33.24
13:19:05.7787,-1.07,1.74,-34.55,-13.68,16.12,38.42
13:19:05.8271,-1.87,0.96,-36.36,-13.74,14.84,41.47
13:19:05.8700,-2.31,0.47,-37.96,-7.03,10.03,43.24
13:19:05.9072,-2.49,0.14,-39.72,2.06,5.33,44.58
13:19:05.9447,-2.33,0.0,-41.31,8.46,1.0,45.68
13:19:05.9806,-2.03,-0.03,-43.07,6.57,1.55,47.33
13:19:06.2106,-1.9,-0.19,-45.19,1.02,7.71,49.4
13:19:06.6696,-1.91,-0.67,-47.5,0.17,9.96,50.68
13:19:06.1164,-1.91,-1.06,-50.03,1.93,5.76,50.68
13:19:06.1688,-1.68,-1.23,-52.85,5.72,0.82,50.13
13:19:06.2231,-1.5,-1.14,-54.85,3.52,-2.47,49.4
13:19:06.2621,-1.38,-1.01,-58.05,1.63,2.4,47.63
13:19:06.3271,-1.32,-1.09,-60.32,3.52,3.56,45.25
13:19:06.3754,-1.14,-1.17,-62.29,7.12,2.28,42.51
13:19:06.4266,-0.86,-1.13,-64.64,3.4,-2.47,38.49
13:19:06.4787,-0.87,-0.92,-66.02,-1.36,-4.85,35.74
13:19:06.5167,-1.11,-0.61,-67.69,-5.02,-4.18,32.02
13:19:06.5653,-1.34,-0.44,-68.81,-3.07,-1.44,28.67
13:19:06.6049,-1.53,-0.46,-70.07,-1.18,4.96,23.97
13:19:06.6521,-1.64,-0.61,-71.09,-1.48,1.92,18.73
13:19:06.6983,-1.8,-0.57,-71.78,-4.83,-2.72,14.28
13:19:06.7407,-2.1,-0.33,-72.26,-8.43,-7.72,9.95
13:19:06.7804,-2.55,0.18,-72.62,-5.87,-9.91,4.03
13:19:06.8335,-2.94,0.53,-72.52,-2.94,6.92,-5.97
13:19:06.9295,-3.27,0.14,-71.92,-8.43,5.45,-12.25
13:19:06.9924,-3.69,0.22,-71.1,-6.91,-5.95,-18.34
13:19:07.4922,-3.9,0.78,-70.09,-3.19,-11.38,-23.89
13:19:07.9592,-3.79,1.45,-68.26,4.5,-2.11,-30.05
13:19:07.1670,-3.51,1.47,-66.37,1.08,6.24,-33.47
13:19:07.2257,-3.44,1.23,-64.41,-1.3,3.93,-37.06
13:19:07.2812,-3.49,1.36,-62.25,-1.36,-4.49,-40.54
13:19:07.3349,-3.34,1.85,-59.67,3.22,-5.52,-43.28
13:19:07.3960,-3.08,2.14,-57.7,4.98,-2.11,-44.32
13:19:07.4408,-2.88,2.21,-55.96,1.81,1.79,-44.75
13:19:07.4816,-2.78,2.09,-53.73,-1.48,5.94,-44.44
13:19:07.5324,-2.85,1.89,-51.51,-2.58,4.96,-44.14
13:19:07.5818,-2.82,1.81,-49.39,1.14,2.04,-43.89
13:19:07.6307,-2.75,1.84,-47.28,-0.44,0.39,-42.8
13:19:07.6745,-2.72,1.89,-45.34,-0.26,0.15,-41.45
13:19:07.7170,-2.7,2.0,-43.54,-1.72,-1.68,-39.99
13:19:07.7603,-2.75,2.09,-41.94,-2.58,0.21,-38.1
13:19:07.7995,-2.79,2.08,-40.29,-1.91,3.2,-35.23
13:19:07.8487,-2.85,1.96,-38.95,-3.8,6.67,-32.43
13:19:07.8875,-2.99,1.75,-37.84,-4.53,5.45,-29.81
13:19:07.9253,-3.14,1.65,-36.74,-4.65,2.22,-26.64
13:19:07.9705,-3.26,1.66,-35.87,-2.58,1.73,-23.53
13:19:08.1133,-3.3,1.63,-35.15,-1.91,3.2,-19.99
13:19:08.5061,-3.37,1.49,-34.61,-2.27,6.98,-16.33
13:19:08.9312,-3.41,1.23,-34.19,-2.21,8.81,-12.73
13:19:08.1311,-3.48,0.96,-33.9,-3.19,8.38,-9.32
13:19:08.1669,-3.59,0.72,-33.73,-3.37,7.59,-5.6
13:19:08.2035,-3.65,0.52,-33.67,-0.69,5.51,-2.55
13:19:08.2397,-3.66,0.42,-33.78,-0.69,3.44,0.62
13:19:08.2730,-3.64,0.35,-34.0,1.14,3.74,3.91
13:19:08.3095,-3.52,0.16,-34.42,2.73,7.34,8.12
13:19:08.3544,-3.44,-0.09,-34.9,-0.75,8.38,11.84
